time,ax,ay,az,atotal
0.002113819122314453,4.28,6.45,0.47,7.75
0.08793878555297852,4.17,6.27,0.26,7.53
0.08950185775756836,3.99,5.98,-0.07,7.18
0.09987592697143555,3.75,4.83,-0.81,6.16
0.10173702239990234,2.88,4.25,-1.53,5.35
0.11404800415039062,1.92,3.7,-2.23,4.72
0.11656785011291504,0.87,3.2,-2.65,4.24
0.13031673431396484,-0.26,2.77,-2.96,4.06
0.13260293006896973,-1.36,2.13,-3.09,3.99
0.1464548110961914,-2.62,1.1,-2.75,3.95
0.14854693412780762,-4.38,-0.37,-2.7,5.15
0.23512983322143555,-4.98,-1.45,-2.33,5.68
0.23661494255065918,-5.76,-2.52,-1.83,6.54
0.24703073501586914,-6.1,-3.39,-1.35,7.1
0.24899888038635254,-6.08,-3.94,-1.02,7.31
0.26337099075317383,-5.81,-4.17,-0.9,7.2
0.26518988609313965,-5.91,-4.31,-1.39,7.44
0.27968287467956543,-5.34,-3.88,-1.7,6.81
0.2815868854522705,-5.17,-3.4,-2.05,6.51
0.2962808609008789,-4.93,-2.86,-2.22,6.11
0.2984888553619385,-4.37,-2.06,-2.17,5.29
0.38274097442626953,-3.81,-1.53,-2.12,4.62
0.3842658996582031,-2.92,-1.39,-1.82,3.71
0.40007495880126953,-1.88,-1.56,-1.32,2.77
0.40200185775756836,-1.1,-1.29,-0.84,1.89
0.4132528305053711,-0.12,-1.37,-0.17,1.38
0.41503286361694336,0.62,-1.19,0.49,1.42
0.429595947265625,1.6,-1.24,1.1,2.3
0.4313168525695801,2.08,-1.62,1.42,2.99
0.4461698532104492,2.67,-3.29,1.54,4.5
0.44797492027282715,2.67,-4.47,1.78,5.5
0.5321059226989746,3.02,-5.3,2.21,6.48
0.5335869789123535,2.47,-5.77,2.5,6.75
0.5498948097229004,2.01,-5.39,2.59,6.3
0.5517089366912842,1.76,-4.77,2.73,5.77
0.5632598400115967,1.35,-3.65,2.65,4.7
0.5649948120117188,1.12,-2.33,2.63,3.68
0.5796008110046387,1.28,-0.88,2.67,3.08
0.5813679695129395,1.94,0.46,2.58,3.26
0.5961039066314697,2.64,1.51,2.33,3.83
0.5980839729309082,3.15,2.36,1.86,4.35
0.6813788414001465,3.62,3.15,1.43,5.0
0.6829259395599365,3.85,3.81,1.0,5.5
0.6998467445373535,3.99,4.32,0.7,5.92
0.7015948295593262,4.06,4.57,0.48,6.13
0.7132918834686279,3.92,4.94,0.2,6.3
0.7150497436523438,3.69,5.31,0.13,6.46
0.7297568321228027,3.56,5.62,-0.07,6.65
0.7316670417785645,3.32,5.66,-0.31,6.56
0.7462010383605957,2.9,5.48,-0.52,6.22
0.7480158805847168,2.37,5.11,-0.73,5.67
0.8318488597869873,1.73,4.57,-0.85,4.95
0.8333568572998047,1.07,4.08,-0.9,4.31
0.8499338626861572,0.45,3.64,-0.96,3.79
0.8517417907714844,0.01,3.32,-0.84,3.42
0.8632259368896484,-1.4,2.43,-0.94,2.95
0.8650317192077637,-3.0,1.34,-1.07,3.45
0.8795747756958008,-3.57,0.72,-1.3,3.86
0.8813300132751465,-4.07,-0.2,-1.64,4.39
0.8961508274078369,-4.34,-1.04,-1.65,4.75
0.8980507850646973,-5.0,-1.93,-1.53,5.57
0.9128439426422119,-5.5,-2.57,-1.1,6.16
0.996574878692627,-5.75,-2.94,-0.82,6.5
0.9981470108032227,-5.76,-3.06,-0.84,6.57
1.0166938304901123,-5.54,-2.91,-0.98,6.33
1.0187628269195557,-5.13,-2.7,-1.03,5.88
1.0299468040466309,-4.63,-2.73,-1.06,5.47
1.0323388576507568,-4.15,-3.07,-1.22,5.3
1.0463578701019287,-3.61,-3.65,-1.29,5.29
1.0482509136199951,-3.1,-4.37,-1.16,5.48
1.0627360343933105,-2.4,-4.87,-0.8,5.48
1.064316749572754,-1.69,-4.52,-0.25,4.83
1.1484088897705078,-1.02,-3.98,0.33,4.12
1.1498868465423584,-0.31,-3.82,0.87,3.93
1.1665959358215332,0.4,-3.81,1.47,4.1
1.1685447692871094,0.81,-3.61,1.93,4.17
1.1799328327178955,1.0,-3.1,2.05,3.84
1.1816978454589844,0.95,-2.25,1.93,3.11
1.196401834487915,0.83,-1.74,1.9,2.7
1.1983058452606201,0.79,-1.46,2.17,2.73
1.212951898574829,0.94,-1.27,2.33,2.81
1.2145657539367676,1.24,-0.87,2.33,2.77
1.2977638244628906,1.51,-0.31,2.23,2.71
1.299232006072998,2.0,1.01,1.86,2.91
1.316882848739624,2.17,1.62,1.79,3.24
1.3188090324401855,2.38,2.27,1.69,3.69
1.3299298286437988,2.7,2.97,1.59,4.31
1.3315749168395996,3.01,3.71,1.49,5.0
1.3464460372924805,3.3,4.33,1.32,5.6
1.3482799530029297,3.52,4.79,1.14,6.05
1.3628158569335938,3.71,5.15,0.96,6.41
1.3645508289337158,3.82,5.39,0.82,6.65
1.4480500221252441,3.79,5.49,0.67,6.7
1.4495398998260498,3.62,5.39,0.52,6.51
1.4668588638305664,3.33,5.22,0.28,6.19
1.4687018394470215,2.98,5.07,-0.02,5.88
1.479921817779541,2.58,4.88,-0.32,5.52
1.481679916381836,2.11,4.69,-0.6,5.17
1.4963419437408447,1.52,4.29,-0.85,4.63
1.4982218742370605,0.71,3.58,-1.17,3.83
1.5129270553588867,0.28,2.67,-1.3,2.98
1.5145609378814697,-1.74,1.74,-1.75,3.01
1.6039700508117676,-2.41,0.85,-1.81,3.13
1.6053810119628906,-3.57,-0.22,-1.87,4.03
1.6170377731323242,-4.46,-0.97,-1.72,4.87
1.618992805480957,-5.09,-1.71,-1.5,5.57
1.629951000213623,-5.75,-2.16,-1.32,6.28
1.6317110061645508,-5.93,-2.83,-1.06,6.65
1.6464309692382812,-5.89,-3.54,-1.15,6.96
1.6482248306274414,-5.65,-3.77,-1.79,7.02
1.6627779006958008,-5.52,-3.49,-1.91,6.8
1.6644740104675293,-5.27,-3.11,-2.05,6.45
1.7473487854003906,-4.63,-2.74,-2.22,5.82
1.7488489151000977,-3.91,-2.49,-2.31,5.17
1.76690673828125,-3.05,-2.79,-2.15,4.65
1.7687978744506836,-2.4,-3.13,-1.63,4.26
1.779939889907837,-1.89,-3.11,-0.97,3.76
1.7816908359527588,-1.28,-2.79,-0.37,3.09
1.7963528633117676,-0.59,-2.49,0.2,2.56
1.7980327606201172,0.19,-2.43,0.67,2.52
1.8129358291625977,0.91,-2.63,1.07,2.98
1.8146018981933594,1.46,-3.14,1.43,3.74
1.8990287780761719,1.99,-3.84,1.68,4.63
1.9004907608032227,2.4,-4.59,1.93,5.52
1.9168877601623535,2.71,-4.99,2.18,6.08
1.9186139106750488,3.02,-5.01,2.32,6.29
1.9299540519714355,3.29,-4.59,2.33,6.1
1.9316949844360352,3.35,-3.8,2.14,5.49
1.9465279579162598,3.26,-2.72,1.89,4.64
1.9481749534606934,3.01,-1.46,1.78,3.78
1.962852954864502,2.88,-0.23,1.9,3.45
1.9646058082580566,2.9,0.92,2.09,3.69
2.0477678775787354,3.1,1.93,2.05,4.18
2.049221992492676,3.43,2.8,1.85,4.79
2.0667619705200195,3.76,3.52,1.59,5.39
2.0686068534851074,4.18,4.35,1.02,6.11
2.0800857543945312,4.31,4.66,0.67,6.38
2.0819387435913086,4.38,4.98,0.26,6.63
2.0964879989624023,4.31,5.13,-0.07,6.7
2.0982718467712402,4.13,5.32,-0.36,6.74
2.112921714782715,3.8,5.46,-0.57,6.67
2.114593982696533,3.36,5.38,-0.74,6.38
2.1991288661956787,2.73,4.98,-0.82,5.73
2.2007248401641846,1.9,4.39,-0.89,4.86
2.217108726501465,0.95,3.74,-0.96,3.97
2.2188339233398438,0.03,3.23,-1.05,3.39
2.2300539016723633,-0.65,2.57,-1.19,2.9
2.231682777404785,-1.21,2.12,-1.23,2.73
2.246440887451172,-1.87,1.53,-1.21,2.7
2.248203754425049,-2.36,1.12,-0.96,2.78
2.2628979682922363,-3.29,0.76,-0.88,3.48
2.264638900756836,-4.09,0.33,-1.07,4.24
2.3480167388916016,-4.85,-0.27,-1.4,5.05
2.349483013153076,-5.51,-0.93,-1.59,5.8
2.3668270111083984,-5.98,-1.49,-1.86,6.43
2.3686869144439697,-6.13,-2.24,-2.08,6.84
2.3800148963928223,-6.03,-2.95,-2.0,7.0
2.3815648555755615,-5.75,-3.54,-1.88,7.0
2.396270751953125,-5.26,-4.02,-1.94,6.89
2.398247718811035,-4.5,-4.25,-2.13,6.54
2.4139509201049805,-3.61,-3.95,-2.42,5.87
2.4148378372192383,-3.46,-2.54,-2.46,4.94
2.4982247352600098,-2.81,-2.67,-1.61,4.19
2.4997687339782715,-1.83,-2.95,-0.82,3.56
2.51669979095459,-0.93,-2.78,-0.15,2.93
2.518375873565674,0.12,-2.13,0.62,2.22
2.5301098823547363,1.15,-2.12,1.19,2.68
2.53226375579834,2.06,-2.61,1.67,3.72
2.5465049743652344,2.8,-3.18,1.99,4.68
2.5482678413391113,2.96,-3.62,2.3,5.21
2.562905788421631,3.01,-3.69,2.52,5.38
2.5646920204162598,2.64,-3.26,2.43,4.84
2.6474838256835938,1.82,-2.11,2.07,3.47
2.6490249633789062,1.53,-1.72,2.37,3.3
2.666792869567871,1.11,-1.22,2.67,3.13
2.6685538291931152,0.94,-0.85,2.79,3.06
2.6800038814544678,0.88,-0.6,2.69,2.89
2.6816399097442627,0.9,-0.34,2.51,2.68
2.6963858604431152,1.07,0.12,2.39,2.62
2.6980819702148438,1.28,0.7,2.35,2.76
2.7129697799682617,1.46,1.41,2.3,3.06
2.714733839035034,1.71,2.32,2.16,3.6
2.7969307899475098,2.16,3.32,1.9,4.39
2.7985188961029053,2.53,4.22,1.47,5.13
2.817617893218994,2.75,4.83,1.08,5.66
2.8194518089294434,2.75,5.68,0.68,6.34
2.8303117752075195,3.13,5.81,0.46,6.61
2.83231782913208,3.19,5.91,-0.32,6.72
2.8468379974365234,3.19,5.92,-0.39,6.73
2.848529815673828,2.84,5.2,-1.12,6.02
2.862898826599121,2.5,4.76,-1.43,5.56
2.8645949363708496,1.93,4.23,-1.76,4.97
2.9475460052490234,1.18,3.69,-1.96,4.34
2.9491429328918457,0.32,3.17,-1.97,3.74
2.967665910720825,-0.71,2.56,-1.95,3.29
2.969666004180908,-1.8,1.73,-1.8,3.07
2.9804699420928955,-2.91,0.63,-1.72,3.43
2.9826228618621826,-3.04,-0.53,-1.45,3.4
2.996644973754883,-5.38,-2.04,-1.45,5.93
2.9984350204467773,-5.2,-2.58,-0.8,5.85
3.012979030609131,-5.38,-3.15,-0.47,6.25
3.01476788520813,-5.72,-3.4,-0.52,6.67
3.0976710319519043,-5.57,-3.48,-0.73,6.6
3.099271774291992,-5.4,-3.43,-1.08,6.48
3.117543935775757,-5.21,-3.72,-1.46,6.56
3.1194987297058105,-4.9,-3.86,-1.73,6.47
3.130462884902954,-4.61,-3.73,-1.95,6.24
3.132253885269165,-4.05,-3.7,-2.22,5.91
3.14688777923584,-3.25,-4.06,-2.39,5.72
3.148705005645752,-2.71,-4.58,-2.1,5.72
3.1631438732147217,-2.56,-4.5,-1.19,5.31
3.1652908325195312,-2.41,-3.75,-0.29,4.46
3.2487449645996094,-1.81,-2.83,0.28,3.37
3.2503600120544434,-1.0,-2.18,0.71,2.5
3.267606735229492,-0.35,-2.12,1.05,2.39
3.269680976867676,1.05,-3.07,1.24,3.47
3.2804527282714844,1.63,-3.54,1.32,4.11
3.282409906387329,2.03,-3.82,1.37,4.53
3.2967588901519775,2.33,-3.75,1.45,4.64
3.298961877822876,2.53,-3.25,1.62,4.42
3.3132729530334473,2.61,-2.42,1.7,3.94
3.315152883529663,2.73,-1.33,1.63,3.44
3.4008307456970215,2.75,-0.04,1.42,3.09
3.4023938179016113,2.9,1.18,1.28,3.38
3.4143009185791016,3.03,2.28,1.32,4.01
3.4163107872009277,3.2,2.97,1.29,4.55
3.430177927017212,3.46,3.52,1.18,5.07
3.431936740875244,3.74,4.03,1.08,5.6
3.4465999603271484,3.97,4.34,0.89,5.94
3.448671817779541,4.09,4.49,0.64,6.1
3.463336944580078,4.09,4.76,0.41,6.28
3.4653918743133545,4.27,4.86,0.16,6.47
3.5503628253936768,4.2,4.96,-0.15,6.5
3.5517578125,3.98,5.16,-0.39,6.52
3.566633939743042,3.5,5.17,-0.38,6.25
3.568521022796631,2.93,4.96,-0.44,5.77
3.5800347328186035,2.37,4.49,-0.62,5.11
3.581624984741211,1.76,3.83,-0.87,4.3
3.5964250564575195,0.98,3.21,-1.01,3.5
3.5980567932128906,0.13,2.49,-1.01,2.69
3.6129038333892822,-0.79,1.54,-0.97,1.98
3.61476993560791,-2.75,0.23,-0.94,2.91
3.698802947998047,-3.58,-0.08,-0.93,3.69
3.7002809047698975,-4.25,-0.3,-1.02,4.38
3.71684193611145,-4.76,-0.64,-1.15,4.93
3.7186269760131836,-4.95,-1.36,-1.12,5.25
3.729956865310669,-5.52,-1.99,-1.12,5.97
3.731534004211426,-5.49,-3.07,-0.99,6.36
3.7464418411254883,-5.42,-3.81,-1.15,6.72
3.7482337951660156,-5.23,-4.06,-1.5,6.78
3.762955904006958,-4.98,-3.87,-1.84,6.56
3.7647879123687744,-4.81,-3.41,-2.23,6.3
3.8482649326324463,-4.28,-2.53,-2.38,5.51
3.849792003631592,-3.96,-1.66,-2.23,4.83
3.8667469024658203,-3.74,-1.18,-1.66,4.25
3.868514060974121,-2.96,-1.5,-1.08,3.48
3.8800668716430664,-1.75,-2.09,-0.49,2.76
3.88179874420166,-0.55,-2.05,0.02,2.12
3.8964788913726807,0.16,-1.74,0.6,1.84
3.8983449935913086,0.72,-1.53,1.03,1.97
3.9129998683929443,1.28,-1.6,1.37,2.46
3.9148788452148438,1.58,-1.89,1.49,2.87
3.9991188049316406,1.73,-2.41,1.57,3.35
4.000569820404053,1.76,-2.7,1.81,3.69
4.01678991317749,1.47,-2.62,2.06,3.64
4.018609046936035,1.2,-2.1,2.3,3.33
4.030439853668213,0.93,-0.85,2.51,2.8
4.03258490562439,1.08,-0.45,2.6,2.85
4.046541929244995,1.31,-0.05,2.66,2.96
4.048374891281128,1.52,0.37,2.64,3.06
4.062922954559326,1.69,0.8,2.71,3.29
4.064871788024902,1.96,1.23,2.51,3.41
4.147947788238525,2.4,1.94,2.36,3.88
4.149456024169922,2.75,2.64,2.18,4.39
4.166846752166748,3.14,3.32,1.92,4.95
4.168578863143921,3.4,3.89,1.68,5.43
4.180038928985596,3.47,4.28,1.4,5.68
4.181727886199951,3.47,4.48,1.17,5.78
4.196315765380859,3.42,4.61,0.87,5.8
4.197958946228027,3.36,4.76,0.55,5.85
4.2130327224731445,3.17,4.83,0.16,5.77
4.214827060699463,2.99,4.8,-0.25,5.66
4.298573017120361,2.66,4.72,-0.44,5.43
4.300142765045166,2.06,4.3,-0.5,4.79
4.3175718784332275,1.19,3.54,-0.68,3.79
4.319633960723877,0.22,2.86,-0.94,3.01
4.330471992492676,-0.82,2.33,-1.2,2.74
4.332578897476196,-1.97,1.91,-1.53,3.14
4.346837043762207,-3.08,1.29,-1.85,3.81
4.348849773406982,-4.03,0.3,-1.96,4.49
4.3629279136657715,-4.58,-0.62,-1.83,4.97
4.364727020263672,-4.82,-1.37,-1.66,5.27
4.448040962219238,-4.97,-2.27,-1.3,5.61
4.449568748474121,-4.8,-2.98,-0.83,5.71
4.466997861862183,-4.47,-3.62,-0.56,5.77
4.469081878662109,-3.63,-4.47,-0.76,5.8
4.480756759643555,-3.81,-4.06,-1.14,5.68
4.483536720275879,-3.51,-3.48,-1.05,5.05
4.4972357749938965,-3.39,-2.58,-1.07,4.39
4.499070882797241,-3.06,-1.75,-1.17,3.71
4.513458728790283,-2.69,-1.29,-1.27,3.24
4.515341758728027,-2.2,-1.3,-1.27,2.85
4.60048770904541,-1.72,-1.64,-0.88,2.53
4.6021199226379395,-1.33,-1.77,-0.43,2.25
4.617182731628418,-0.4,-1.78,0.03,1.82
4.618928909301758,0.16,-1.4,0.42,1.47
4.6300208568573,0.92,-1.23,0.93,1.79
4.631791830062866,1.49,-1.36,1.25,2.37
4.646435737609863,1.98,-1.73,1.43,2.99
4.648319721221924,2.37,-2.39,1.49,3.68
4.6629509925842285,2.5,-3.11,1.36,4.21
4.664768934249878,2.53,-3.8,1.25,4.73
4.747696876525879,2.47,-4.08,1.2,4.91
4.749359846115112,2.29,-3.96,1.25,4.74
4.766793727874756,2.03,-3.58,1.26,4.3
4.7687788009643555,1.71,-2.76,1.16,3.44
4.780109882354736,1.48,-1.67,1.12,2.49
4.781847953796387,1.55,-0.37,1.15,1.96
4.796437740325928,1.95,1.0,1.21,2.5
4.798181056976318,2.4,2.07,1.16,3.37
4.8134238719940186,2.95,2.91,1.0,4.26
4.815516948699951,3.87,4.26,0.55,5.78
4.899130821228027,4.15,4.64,0.3,6.23
4.90081787109375,4.23,5.07,0.12,6.6
4.916910886764526,4.15,5.48,-0.01,6.87
4.918798923492432,4.03,5.88,-0.17,7.13
4.930080890655518,3.81,6.28,-0.35,7.35
4.932215929031372,3.62,6.45,-0.54,7.41
4.9465227127075195,3.27,6.36,-0.78,7.19
4.9487738609313965,2.85,6.01,-1.02,6.72
4.963006973266602,2.32,5.36,-1.24,5.97
4.964963912963867,1.65,4.51,-1.27,4.96
5.047984838485718,0.8,3.61,-1.15,3.87
5.049587726593018,-0.3,2.79,-1.19,3.04
5.066926956176758,-1.49,1.99,-1.38,2.84
5.068635940551758,-2.61,1.25,-1.45,3.23
5.080769062042236,-3.64,0.77,-1.4,3.97
5.083159923553467,-4.36,0.48,-1.32,4.58
5.096449851989746,-5.08,0.2,-1.39,5.27
5.098235845565796,-5.6,-0.21,-1.3,5.75
5.113121032714844,-5.68,-0.6,-1.13,5.82
5.115275859832764,-5.5,-1.18,-1.14,5.73
5.1987998485565186,-5.02,-1.88,-1.33,5.52
5.200269937515259,-4.62,-2.69,-1.68,5.6
5.216919898986816,-4.17,-3.41,-1.9,5.71
5.218888759613037,-3.83,-3.63,-2.11,5.68
5.230119943618774,-3.49,-3.41,-2.37,5.42
5.2317588329315186,-3.67,-1.71,-2.21,4.61
5.2465057373046875,-3.46,-1.99,-1.16,4.15
5.248450756072998,-2.46,-2.73,-0.28,3.68
5.263096809387207,-1.23,-3.2,0.26,3.43
5.264876842498779,-0.05,-3.42,1.03,3.57
5.349001884460449,0.96,-3.72,1.71,4.2
5.350837707519531,1.85,-4.19,2.24,5.09
5.367170810699463,2.57,-4.51,2.47,5.74
5.369063854217529,3.12,-4.54,2.54,6.06
5.38021993637085,2.22,-4.6,2.47,5.67
5.381849765777588,1.59,-4.25,2.38,5.12
5.396545886993408,0.98,-3.76,2.43,4.58
5.398288726806641,-0.03,-3.04,2.48,3.92
5.413095951080322,-0.62,-2.87,2.51,3.86
5.41488790512085,-1.07,-2.61,2.44,3.72
5.498841762542725,-1.26,-2.27,2.41,3.54
5.500432968139648,-1.09,-1.61,2.4,3.08
5.51702880859375,-0.93,-0.83,2.42,2.72
5.518962860107422,-0.73,-0.08,2.37,2.48
5.5301127433776855,-0.38,0.95,2.26,2.48
5.532344818115234,0.05,1.94,2.11,2.86
5.5464630126953125,0.91,3.03,1.83,3.65
5.548766851425171,1.73,3.94,1.56,4.57
5.563218832015991,2.45,4.51,1.33,5.3
5.565016746520996,3.07,4.99,1.02,5.94
5.647535800933838,3.46,5.37,0.79,6.43
5.648939847946167,3.81,5.45,0.5,6.66
5.666896820068359,3.9,5.28,0.26,6.56
5.668462753295898,3.9,4.56,-0.09,6.0
5.680132865905762,3.73,4.45,-0.37,5.81
5.682027816772461,3.38,4.36,-0.68,5.55
5.696465969085693,2.67,4.02,-1.04,4.93
5.698342800140381,1.77,3.69,-1.37,4.31
5.713067054748535,0.81,3.15,-1.68,3.66
5.714873790740967,-0.09,2.35,-1.96,3.06
5.798778057098389,-0.91,1.42,-2.04,2.64
5.8002028465271,-1.79,0.4,-2.04,2.74
5.816950798034668,-2.65,-0.56,-1.89,3.3
5.818804740905762,-3.36,-1.2,-1.49,3.86
5.830097913742065,-3.64,-1.59,-1.1,4.12
5.831833839416504,-3.66,-1.85,-0.86,4.19
5.846409797668457,-3.63,-2.18,-0.86,4.32
5.848026752471924,-3.64,-2.43,-1.2,4.53
5.863102912902832,-3.87,-2.49,-1.66,4.89
5.864807844161987,-4.23,-2.36,-2.17,5.3
5.948248863220215,-4.37,-2.23,-2.37,5.44
5.9497809410095215,-4.46,-2.27,-2.45,5.57
5.9670538902282715,-4.28,-2.62,-2.42,5.57
5.96895694732666,-3.95,-3.33,-2.29,5.65
5.980068922042847,-3.55,-4.12,-1.75,5.71
5.981832027435303,-3.19,-4.61,-0.99,5.69
5.996383905410767,-2.7,-4.53,-0.21,5.27
5.99813985824585,-2.11,-3.99,0.48,4.53
6.013230800628662,-1.36,-3.47,0.99,3.85
6.0151448249816895,0.27,-3.22,1.53,3.57
6.099457740783691,1.06,-3.62,1.67,4.12
6.100925922393799,1.72,-4.07,1.74,4.74
6.116982936859131,2.27,-4.24,1.91,5.17
6.118823051452637,2.75,-4.08,1.97,5.29
6.130076885223389,3.1,-3.66,1.95,5.17
6.132113933563232,3.13,-3.01,1.89,4.73
6.146516799926758,2.94,-2.11,1.76,4.02
6.14838981628418,2.89,-1.0,1.74,3.51
6.16302490234375,2.91,0.2,1.85,3.45
6.164779901504517,2.96,1.33,1.94,3.78
6.248272895812988,3.13,2.45,1.81,4.36
6.249788761138916,3.29,3.45,1.58,5.02
6.26699686050415,3.46,4.25,1.38,5.65
6.26877498626709,3.6,4.7,1.1,6.02
6.280148983001709,3.59,5.18,0.78,6.35
6.282063007354736,3.93,5.01,0.5,6.38
6.2964630126953125,3.98,5.29,0.2,6.62
6.29819393157959,4.05,5.37,-0.08,6.72
6.313165903091431,3.97,5.46,-0.3,6.75
6.314940929412842,3.7,5.47,-0.36,6.61
6.399529933929443,3.33,5.34,-0.45,6.3
6.401331901550293,2.78,5.08,-0.56,5.81
6.417562007904053,2.09,4.7,-0.68,5.18
6.419264793395996,1.34,4.08,-0.84,4.37
6.4301159381866455,0.47,3.19,-1.12,3.41
6.432458877563477,-0.94,1.5,-1.35,2.22
6.4465038776397705,-1.52,1.0,-1.38,2.28
6.448187828063965,-2.07,0.35,-1.38,2.51
6.462945938110352,-2.72,-0.46,-1.36,3.07
6.464827060699463,-3.25,-0.91,-1.27,3.6
6.548367977142334,-4.52,-1.71,-1.27,4.99
6.5498738288879395,-5.3,-2.08,-1.34,5.84
6.567580938339233,-5.61,-2.15,-1.18,6.12
6.569585800170898,-6.23,-2.51,-1.31,6.84
6.580606937408447,-6.26,-2.62,-1.54,6.95
6.583092927932739,-6.0,-2.75,-1.8,6.84
6.596859931945801,-5.63,-2.9,-2.2,6.7
6.598790884017944,-5.07,-2.97,-2.51,6.38
6.613240718841553,-4.61,-2.72,-2.49,5.9
6.615246772766113,-4.25,-2.15,-2.23,5.25
6.698297023773193,-4.01,-2.24,-1.86,4.95
6.699758052825928,-3.1,-2.95,-1.25,4.45
6.71816873550415,-2.2,-3.01,-0.59,3.77
6.720216751098633,-1.61,-2.46,0.01,2.94
6.730715751647949,-1.22,-1.92,0.53,2.33
6.732662916183472,-0.77,-1.9,1.16,2.35
6.746567726135254,-0.03,-2.31,1.89,2.98
6.748394012451172,0.52,-2.81,2.41,3.73
6.762990951538086,0.82,-3.02,2.71,4.13
6.764681816101074,0.92,-2.76,2.64,3.92
6.847148895263672,0.84,-2.23,2.55,3.49
6.8486199378967285,0.73,-1.63,2.71,3.24
6.867837905883789,0.91,-0.79,3.19,3.41
6.869752883911133,1.2,-0.41,3.09,3.34
6.880671977996826,1.12,-0.15,2.73,2.95
6.882506847381592,1.76,0.81,2.62,3.25
6.896917819976807,1.97,1.42,2.39,3.4
6.898926734924316,1.89,1.76,2.2,3.39
6.9134907722473145,2.09,2.29,2.07,3.72
6.915341854095459,2.4,2.89,1.96,4.23
6.998869895935059,2.74,3.4,1.86,4.74
7.000427722930908,3.17,3.99,1.75,5.38
7.017798900604248,3.58,4.47,1.6,5.94
7.019844055175781,3.81,4.9,1.42,6.36
7.030596733093262,3.98,5.06,1.34,6.57
7.033105850219727,3.89,5.16,1.05,6.54
7.047234058380127,3.62,5.04,0.68,6.24
7.049186706542969,3.3,4.9,0.29,5.91
7.0633769035339355,3.1,4.68,-0.14,5.61
7.065353870391846,2.74,4.46,-0.66,5.27
7.150190830230713,2.07,4.04,-1.26,4.71
7.1525187492370605,1.26,3.63,-1.72,4.2
7.167886734008789,0.39,2.91,-1.96,3.53
7.168839931488037,-0.51,1.99,-2.05,2.9
7.17046594619751,-1.56,0.91,-2.02,2.7
7.180413722991943,-2.31,0.16,-1.74,2.89
7.182409763336182,-3.37,-0.57,-1.79,3.85
7.196723937988281,-4.11,-1.28,-2.05,4.76
7.1985039710998535,-4.64,-1.81,-2.16,5.42
7.213568925857544,-5.09,-2.71,-2.44,6.26
7.297098875045776,-5.2,-2.93,-2.45,6.45
7.2985029220581055,-5.33,-2.8,-2.47,6.5
7.3176188468933105,-5.36,-2.61,-2.58,6.49
7.318637847900391,-5.29,-2.41,-2.77,6.43
7.320279836654663,-5.1,-2.49,-2.96,6.4
7.330203056335449,-4.79,-2.9,-2.94,6.32
7.33190393447876,-4.29,-3.51,-2.54,6.09
7.347010850906372,-3.81,-4.26,-1.89,6.01
7.34890079498291,-3.42,-4.86,-1.08,6.04
7.363207817077637,-2.89,-4.87,-0.15,5.66
7.446712017059326,-2.17,-4.3,0.72,4.87
7.4483137130737305,-1.38,-3.69,1.32,4.15
7.467610836029053,-0.61,-3.28,1.61,3.7
7.469861030578613,0.06,-3.23,1.73,3.66
7.48022985458374,0.67,-3.6,1.95,4.14
7.482013940811157,1.27,-4.1,2.23,4.83
7.49662184715271,1.88,-4.64,2.54,5.61
7.498319864273071,2.44,-4.78,2.79,6.04
7.513335943222046,3.03,-4.38,2.91,6.06
7.515012741088867,3.35,-3.92,2.77,5.85
7.598890781402588,3.98,-1.93,2.44,5.05
7.600421905517578,4.21,-0.57,2.02,4.7
7.617125034332275,4.34,0.71,1.8,4.75
7.618996858596802,4.48,1.86,1.91,5.21
7.630306720733643,4.65,2.76,2.05,5.78
7.632081031799316,4.99,4.16,1.9,6.76
7.646565914154053,5.28,4.83,1.8,7.37
7.648303031921387,5.01,5.13,1.57,7.34
7.663066864013672,4.79,5.69,1.27,7.54
7.664909839630127,4.3,5.88,0.99,7.35
7.747169017791748,4.14,5.97,0.56,7.28
7.748616933822632,3.95,5.74,0.1,6.96
7.767119884490967,3.49,5.31,-0.39,6.36
7.769003868103027,3.45,5.13,-0.68,6.21
7.780284881591797,3.12,4.86,-0.9,5.84
7.78206205368042,2.73,4.46,-1.14,5.35
7.796535968780518,2.02,3.94,-1.2,4.58
7.7981977462768555,1.28,3.27,-1.11,3.68
7.813175916671753,0.36,2.4,-1.03,2.63
7.815009832382202,-0.61,1.57,-1.12,2.02
7.829895973205566,-1.2,0.75,-1.21,1.86
7.913198947906494,-1.81,0.19,-1.34,2.26
7.914676904678345,-2.3,-0.12,-1.5,2.74
7.933713912963867,-2.75,-0.5,-1.74,3.29
7.935544013977051,-3.23,-0.94,-1.94,3.88
7.946867942810059,-3.62,-1.54,-2.12,4.46
7.948719024658203,-4.21,-2.41,-2.37,5.39
7.963237762451172,-4.9,-3.22,-2.39,6.33
7.965062856674194,-5.58,-3.69,-2.6,7.17
7.979781866073608,-6.17,-3.81,-2.55,7.68
7.98154878616333,-6.45,-3.93,-2.71,8.02
8.06485390663147,-6.36,-3.81,-2.89,7.95
8.066431045532227,-6.48,-3.0,-2.49,7.56
8.08440089225769,-6.1,-2.45,-1.9,6.84
8.086549758911133,-3.98,-3.12,-0.77,5.11
8.097278833389282,-3.45,-3.15,-0.42,4.69
8.09958791732788,-2.35,-2.57,0.04,3.48
8.11333179473877,-1.44,-2.14,0.36,2.6
8.115243911743164,-0.54,-2.25,0.86,2.46
8.129817962646484,0.23,-3.0,1.33,3.28
8.131739854812622,0.74,-3.71,2.02,4.28
8.215932846069336,1.03,-4.19,2.61,5.04
8.217481851577759,1.18,-4.31,2.93,5.34
8.233726978302002,1.05,-3.96,2.94,5.04
8.235406875610352,0.68,-3.23,2.94,4.42
8.246823787689209,0.49,-2.51,3.06,3.98
8.248424053192139,0.52,-1.86,3.36,3.87
8.263558864593506,0.8,-1.12,3.67,3.91
8.265570878982544,1.39,-0.15,3.76,4.01
8.279842853546143,2.0,0.88,3.59,4.2
8.281601905822754,2.47,1.28,2.88,4.0
8.364112854003906,3.19,1.7,2.07,4.16
8.365795850753784,4.61,2.7,2.5,5.89
8.383693933486938,5.26,3.47,2.64,6.83
8.385499000549316,4.47,4.41,1.81,6.53
8.396894931793213,3.87,5.28,1.37,6.68
8.39930772781372,3.56,5.84,1.22,6.94
8.413387775421143,3.83,6.05,1.37,7.29
8.415206909179688,3.09,5.74,1.17,6.62
8.429791927337646,2.4,5.25,0.91,5.84
8.431469917297363,2.16,4.58,0.66,5.1
8.513092041015625,1.79,4.18,0.28,4.55
8.51456880569458,1.24,3.66,-0.33,3.87
8.533699035644531,0.7,3.19,-0.92,3.39
8.535444736480713,0.02,2.58,-1.38,2.92
8.546964883804321,-0.99,1.81,-1.95,2.83
8.549152851104736,-2.04,1.18,-2.15,3.19
8.563259840011597,-3.11,0.49,-2.39,3.95
8.565067768096924,-4.13,-0.28,-2.44,4.8
8.579818725585938,-5.3,-0.85,-2.62,5.97
8.581589937210083,-5.92,-1.38,-3.07,6.8
8.664138793945312,-6.01,-2.51,-3.52,7.4
8.666138887405396,-5.6,-1.05,-4.07,7.0
8.684446811676025,-4.2,-0.48,-4.32,6.04
8.686493873596191,-5.02,-1.82,-5.06,7.35
8.697222709655762,-5.6,-2.2,-5.44,8.11
8.699489831924438,-5.47,-1.94,-5.25,7.82
8.713306903839111,-5.33,-1.97,-4.93,7.52
8.715023040771484,-5.12,-2.71,-4.24,7.17
8.729856014251709,-5.46,-5.13,-3.49,8.26
8.731623888015747,-4.2,-5.02,-2.2,6.9
8.813936710357666,-3.52,-5.38,-0.93,6.49
8.815860748291016,-2.84,-5.18,-0.03,5.9
8.834526062011719,-2.48,-4.25,0.59,4.95
8.836596012115479,-2.29,-3.38,0.9,4.18
8.847352027893066,-1.45,-2.34,1.41,3.09
8.849992752075195,0.52,-2.59,2.13,3.39
8.863674879074097,1.53,-3.54,2.31,4.49
8.865866899490356,2.39,-4.31,2.38,5.47
8.879808902740479,2.8,-4.76,2.71,6.15
8.881600856781006,3.28,-5.18,3.26,6.94
8.9635329246521,3.69,-5.08,3.61,7.24
8.964983940124512,3.87,-4.6,3.72,7.06
8.983628749847412,4.03,-2.96,3.54,6.12
8.9855637550354,4.26,-1.67,3.39,5.69
8.996912956237793,4.54,-0.16,3.04,5.46
8.998744010925293,4.53,1.28,2.55,5.35
9.01335096359253,4.81,2.32,2.32,5.82
9.01519775390625,5.01,2.94,2.08,6.17
9.029791831970215,4.62,3.58,1.89,6.14
9.031514883041382,4.29,4.05,1.52,6.09
9.113310813903809,4.2,4.33,1.6,6.24
9.114800930023193,4.15,4.54,1.09,6.24
9.133362770080566,4.16,4.67,0.85,6.31
9.135267734527588,4.0,4.74,0.65,6.23
9.146924018859863,3.53,4.9,0.39,6.05
9.14905071258545,3.07,5.21,0.25,6.05
9.163224935531616,2.76,5.42,0.3,6.08
9.164857864379883,2.49,4.92,0.57,5.54
9.180124759674072,1.8,4.77,-0.46,5.11
9.18285584449768,1.1,4.45,-0.63,4.62
9.26650094985962,0.47,3.92,-2.05,4.44
9.268275737762451,0.43,2.99,-2.69,4.04
9.28396987915039,-0.2,2.56,-2.84,3.82
9.285830974578857,-1.12,2.1,-2.68,3.58
9.296958923339844,-2.24,1.53,-2.6,3.75
9.299040794372559,-3.04,1.22,-2.37,4.04
9.313889980316162,-4.06,0.41,-2.2,4.63
9.31587290763855,-5.06,-0.89,-1.85,5.46
9.33016300201416,-5.76,-2.19,-1.25,6.28
9.332576751708984,-6.33,-3.17,-0.57,7.1
9.416822910308838,-6.54,-4.07,-0.09,7.7
9.418632984161377,-6.78,-4.48,0.25,8.13
9.434618949890137,-6.76,-4.52,0.19,8.13
9.436460971832275,-6.58,-4.29,0.0,7.85
9.447289943695068,-6.18,-4.06,-0.4,7.4
9.4495849609375,-5.7,-4.39,-0.65,7.22
9.463685035705566,-5.21,-4.2,-0.6,6.71
9.465766906738281,-4.66,-4.09,-0.31,6.2
9.480196952819824,-3.61,-4.28,0.07,5.59
9.482280731201172,-2.45,-3.9,0.31,4.61
9.565422058105469,-1.32,-3.32,0.62,3.62
9.567071914672852,-0.16,-2.93,0.85,3.05
9.584351062774658,0.98,-2.98,1.03,3.3
9.586390972137451,1.72,-2.76,1.05,3.41
9.59746503829956,2.13,-2.48,1.21,3.48
9.599730014801025,2.25,-2.16,1.59,3.5
9.613860845565796,2.37,-1.1,1.63,3.07
9.61592984199524,2.65,-0.52,1.6,3.13
9.630194902420044,2.86,-0.02,1.75,3.35
9.63221788406372,3.16,0.32,1.82,3.66
9.715242862701416,3.37,0.78,1.82,3.9
9.716771841049194,3.51,1.19,1.77,4.1
9.734344005584717,3.64,1.67,1.49,4.27
9.736259937286377,3.79,2.06,1.21,4.48
9.747536897659302,3.91,2.47,1.09,4.75
9.749866008758545,3.98,3.05,1.01,5.11
9.763465881347656,4.04,3.66,0.87,5.52
9.7653648853302,4.12,4.17,0.77,5.91
9.779834747314453,4.11,4.5,0.52,6.11
9.781706809997559,4.06,4.6,0.23,6.13
9.863630771636963,3.92,4.71,-0.05,6.12
9.865400791168213,3.81,4.74,-0.25,6.08
9.88435697555542,3.49,4.71,-0.51,5.88
9.886247873306274,3.1,4.63,-0.7,5.61
9.897336959838867,2.58,4.46,-0.81,5.21
9.899723052978516,1.91,4.09,-1.08,4.64
9.913856983184814,1.17,3.68,-1.27,4.06
9.915757894515991,0.31,3.08,-1.58,3.47
9.930132865905762,-0.64,2.32,-1.87,3.04
9.932200908660889,-1.49,1.66,-1.91,2.93
10.015975952148438,-3.19,0.51,-1.78,3.68
10.018346786499023,-4.07,-0.35,-1.49,4.34
10.019120931625366,-4.99,-1.37,-1.21,5.31
10.035047054290771,-5.86,-2.72,-1.02,6.54
10.036098003387451,-6.1,-4.05,-0.99,7.38
10.038002014160156,-6.44,-4.53,-1.02,7.93
10.047403812408447,-6.58,-4.9,-0.92,8.25
10.049243927001953,-6.7,-5.06,-1.03,8.45
10.063894748687744,-6.54,-4.78,-1.17,8.18
10.065675735473633,-6.57,-4.02,-1.31,7.81
10.14832592010498,-5.99,-3.14,-1.26,6.87
10.14992904663086,-5.02,-2.61,-1.21,5.78
10.166975975036621,-3.78,-2.29,-1.17,4.57
10.168907880783081,-2.61,-2.16,-0.96,3.52
10.180277824401855,-1.69,-2.2,-0.59,2.83
10.182284832000732,-0.83,-2.02,-0.07,2.18
10.196645736694336,-0.09,-1.87,0.44,1.92
10.198462963104248,0.78,-1.79,0.88,2.14
10.213642835617065,1.45,-2.07,1.24,2.81
10.215627908706665,2.11,-2.5,1.4,3.55
10.299193859100342,2.82,-3.08,1.47,4.42
10.300819873809814,3.59,-3.77,1.52,5.42
10.31821084022522,3.69,-4.12,1.5,5.73
10.320368766784668,4.4,-4.29,1.58,6.34
10.330854892730713,4.55,-4.07,1.49,6.28
10.333003997802734,4.47,-3.29,1.4,5.72
10.347210884094238,4.28,-2.25,1.27,4.99
10.34909200668335,4.0,-1.09,1.13,4.29
10.363531827926636,3.7,0.01,1.06,3.84
10.36546277999878,3.66,1.23,1.08,4.0
10.447995901107788,4.14,2.96,0.99,5.18
10.449810028076172,4.32,3.63,0.67,5.68
10.468177795410156,4.53,4.24,0.36,6.21
10.470131874084473,4.6,4.61,0.07,6.51
10.480687856674194,4.61,4.96,-0.24,6.77
10.482966899871826,4.59,5.16,-0.53,6.92
10.496887922286987,4.5,5.22,-0.83,6.94
10.498687744140625,4.32,5.32,-1.04,6.93
10.513250827789307,3.98,5.41,-1.18,6.81
10.515038013458252,3.48,5.42,-1.23,6.55
10.59903883934021,2.83,5.15,-1.26,6.0
10.600870847702026,1.94,4.56,-1.38,5.14
10.618685722351074,0.92,3.82,-1.4,4.17
10.620712757110596,-0.2,3.01,-1.45,3.34
10.630786895751953,-1.07,2.27,-1.41,2.87
10.633076906204224,-2.43,1.23,-1.63,3.17
10.647340774536133,-3.51,0.72,-1.73,3.97
10.649263858795166,-4.33,0.09,-1.64,4.63
10.663569927215576,-5.3,-0.45,-1.45,5.51
10.665524005889893,-6.17,-0.84,-1.11,6.32
10.749038934707642,-6.73,-1.12,-0.75,6.86
10.751061916351318,-6.98,-1.53,-0.62,7.17
10.768387794494629,-6.9,-2.12,-0.6,7.24
10.770349025726318,-6.4,-2.84,-0.87,7.05
10.780722856521606,-5.85,-3.28,-1.25,6.82
10.782517910003662,-5.31,-3.41,-1.54,6.49
10.797266006469727,-4.49,-2.6,-1.68,5.45
10.799124717712402,-4.34,-1.87,-1.52,4.96
10.813660860061646,-3.72,-1.7,-1.24,4.27
10.815505027770996,-3.02,-1.77,-0.61,3.55
10.899082899093628,-1.99,-1.98,0.04,2.8
10.90097689628601,-0.99,-2.16,0.56,2.44
10.918068885803223,-0.06,-2.45,1.15,2.7
10.920053005218506,0.89,-2.7,1.58,3.25
10.930713891983032,1.76,-3.13,1.75,3.99
10.93304991722107,2.41,-3.54,1.81,4.64
10.947243928909302,3.04,-3.83,1.99,5.27
10.949270725250244,2.67,-3.48,1.88,4.77
10.96356987953186,2.68,-2.81,1.9,4.32
10.965597867965698,2.42,-2.12,2.26,3.93
11.050374031066895,2.2,-1.61,2.68,3.82
11.051919937133789,2.0,-1.42,2.87,3.77
11.068094730377197,1.87,-1.11,2.89,3.61
11.070079803466797,1.82,-0.66,2.73,3.34
11.08092975616455,1.85,-0.24,2.57,3.17
11.083664894104004,1.88,0.09,2.36,3.01
11.09726095199585,1.78,0.41,2.01,2.71
11.099716901779175,1.66,0.85,1.69,2.51
11.113749027252197,1.95,1.66,1.38,2.9
11.116013050079346,2.17,2.57,1.02,3.51
11.200116872787476,2.48,3.38,0.8,4.26
11.201717853546143,2.68,3.99,0.57,4.84
11.21849775314331,2.97,4.46,0.27,5.36
11.220641851425171,3.28,4.72,-0.51,5.77
11.231002807617188,3.14,4.69,-0.92,5.71
11.233640909194946,2.79,4.46,-1.16,5.38
11.246854782104492,2.38,4.28,-1.32,5.07
11.248764038085938,1.9,4.21,-1.47,4.84
11.263711929321289,1.32,3.99,-1.75,4.55
11.265975952148438,0.66,3.48,-2.02,4.07
11.347973823547363,-0.02,2.63,-2.12,3.37
11.350113868713379,-1.03,1.3,-2.2,2.75
11.350854873657227,-2.01,0.42,-1.88,2.78
11.367214918136597,-2.44,0.09,-1.53,2.88
11.368968963623047,-3.16,-0.46,-1.41,3.49
11.380414009094238,-3.77,-0.77,-1.17,4.02
11.382101058959961,-4.07,-1.4,-0.86,4.38
11.396747827529907,-4.2,-2.28,-0.84,4.85
11.39832091331482,-4.2,-2.87,-1.04,5.19
11.413297891616821,-4.22,-3.3,-1.36,5.52
11.499850749969482,-4.46,-3.51,-1.67,5.91
11.501332759857178,-4.85,-3.34,-1.78,6.15
11.517224788665771,-4.79,-3.01,-1.62,5.88
11.519026756286621,-4.66,-2.69,-1.53,5.59
11.530417919158936,-4.17,-2.63,-1.32,5.1
11.532424926757812,-3.55,-2.85,-0.87,4.63
11.546795845031738,-3.08,-3.09,-0.31,4.37
11.548542022705078,-2.68,-3.11,0.16,4.1
11.563341856002808,-2.08,-2.91,0.49,3.61
11.565217971801758,-0.83,-2.74,1.04,3.04
11.646641731262207,-0.06,-2.99,1.18,3.21
11.648202896118164,0.78,-3.43,1.21,3.71
11.667247772216797,1.83,-3.97,1.32,4.56
11.669042825698853,1.82,-4.19,1.24,4.73
11.68079686164856,2.67,-4.32,1.49,5.29
11.682647943496704,2.99,-3.99,1.6,5.23
11.696728706359863,3.16,-3.4,1.6,4.9
11.698309898376465,3.23,-2.48,1.55,4.35
11.713255882263184,3.23,-1.09,1.39,3.68
11.71488094329834,3.11,0.21,1.19,3.33
11.796954870223999,3.24,1.48,1.19,3.75
11.798428058624268,3.57,2.48,1.17,4.5
11.817286968231201,3.77,3.24,0.98,5.06
11.819279909133911,4.02,3.88,0.75,5.63
11.83041000366211,4.26,4.3,0.5,6.07
11.832497835159302,4.43,4.68,0.28,6.45
11.846849918365479,4.58,4.97,0.13,6.75
11.84877872467041,4.61,5.22,-0.01,6.96
11.86380386352539,4.6,5.44,-0.15,7.12
11.865869998931885,4.47,5.53,-0.35,7.11
11.947558879852295,4.23,5.48,-0.62,6.95
11.949067831039429,3.83,5.28,-0.78,6.56
11.967339038848877,3.27,4.87,-0.85,5.92
11.969205856323242,2.64,4.32,-0.98,5.15
11.980466842651367,1.8,3.63,-1.12,4.2
11.982297897338867,0.82,2.89,-1.01,3.16
11.996726036071777,-1.25,1.1,-0.56,1.75
11.998463869094849,-2.77,0.53,-0.55,2.87
12.013355731964111,-3.4,0.16,-0.4,3.42
12.015225887298584,-4.21,-0.41,-0.37,4.24
12.096880912780762,-4.85,-0.38,-0.44,4.88
12.098426818847656,-5.35,-0.7,-0.65,5.43
12.117189884185791,-5.81,-0.94,-1.01,5.97
12.119081020355225,-6.14,-1.27,-1.26,6.39
12.130425930023193,-6.19,-1.64,-1.35,6.54
12.132290840148926,-6.41,-2.11,-1.44,6.9
12.146722793579102,-6.49,-2.51,-1.44,7.1
12.148591041564941,-6.23,-2.7,-1.41,6.93
12.163304805755615,-5.96,-2.67,-1.41,6.68
12.164914846420288,-5.62,-2.48,-1.32,6.28
12.247402906417847,-5.07,-2.13,-1.26,5.64
12.249207019805908,-4.56,-2.19,-1.06,5.16
12.26786494255066,-3.77,-2.72,-0.59,4.68
12.269935846328735,-2.8,-3.04,-0.08,4.13
12.280430793762207,-1.87,-2.82,0.4,3.4
12.282384872436523,-0.9,-2.65,0.86,2.92
12.297224044799805,0.17,-2.79,1.45,3.14
12.299191951751709,1.25,-3.2,2.06,4.0
12.31375503540039,2.61,-3.25,2.35,4.78
12.31597900390625,2.56,-3.59,2.34,4.99
12.397181987762451,2.94,-3.21,2.36,4.95
12.398729801177979,2.58,-2.8,2.45,4.52
12.417874813079834,2.16,-2.06,2.86,4.13
12.41980504989624,2.19,-1.58,3.07,4.08
12.430973052978516,2.17,-1.0,2.94,3.78
12.433761835098267,1.86,-0.36,2.64,3.24
12.446850776672363,1.92,0.28,2.4,3.08
12.448616981506348,1.75,0.83,2.25,2.96
12.463258743286133,1.64,1.24,2.16,2.98
12.465190887451172,1.67,1.66,2.04,3.11
12.544643878936768,1.72,2.17,1.71,3.25
12.546674728393555,1.96,2.82,1.46,3.73
12.54813003540039,2.21,3.62,1.2,4.4
12.563852787017822,2.53,4.31,0.94,5.08
12.565796852111816,2.75,5.09,0.81,5.84
12.580137729644775,3.0,5.5,0.6,6.29
12.581763744354248,3.15,5.66,0.4,6.48
12.596601009368896,3.14,5.58,0.14,6.4
12.598371028900146,3.15,5.34,-0.23,6.2
12.613428831100464,2.93,4.87,-0.54,5.7
12.693351745605469,2.48,4.45,-0.84,5.16
12.695322036743164,1.89,4.19,-1.11,4.72
12.697074890136719,1.21,3.83,-1.28,4.21
12.713873863220215,0.51,3.25,-1.42,3.58
12.716131925582886,-0.42,2.42,-1.3,2.77
12.730154991149902,-1.51,1.31,-1.14,2.3
12.731884956359863,-2.6,0.4,-0.86,2.76
12.746647834777832,-3.46,-0.74,-0.67,3.6
12.748286724090576,-4.52,-2.19,-0.52,5.04
12.76337194442749,-4.62,-2.69,-0.56,5.37
12.84415578842163,-4.68,-3.16,-0.78,5.7
12.846228837966919,-4.76,-3.49,-0.92,5.97
12.847709894180298,-5.08,-3.59,-1.17,6.32
12.863999843597412,-5.5,-3.54,-1.35,6.67
12.86626672744751,-5.68,-3.28,-1.47,6.72
12.880146026611328,-5.63,-3.16,-1.45,6.61
12.882032871246338,-5.12,-3.26,-1.39,6.22
12.896609783172607,-4.3,-3.42,-1.17,5.61
12.898463726043701,-3.64,-3.68,-0.73,5.22
12.913420915603638,-2.87,-3.64,-0.08,4.63
12.9929678440094,-1.85,-3.22,0.41,3.73
12.994607925415039,-0.78,-2.71,0.6,2.88
13.000784873962402,0.25,-2.46,0.74,2.58
13.002604007720947,1.03,-2.53,0.79,2.84
13.013844013214111,1.69,-2.82,0.73,3.36
13.015946865081787,2.04,-3.34,0.59,3.95
13.030093908309937,2.72,-3.3,0.66,4.32
13.031668901443481,2.97,-3.25,0.76,4.46
13.046650886535645,3.03,-2.96,0.89,4.32
13.048410892486572,3.06,-2.28,1.08,3.96
13.128066062927246,2.91,-1.44,1.06,3.41
13.130109786987305,2.65,-0.5,0.91,2.84
13.131594896316528,2.57,0.28,0.9,2.73
13.147153854370117,2.62,1.09,1.08,3.03
13.149123907089233,2.95,2.64,1.48,4.22
13.16359281539917,3.22,3.32,1.38,4.82
13.165441036224365,3.59,4.03,1.14,5.51
13.179923057556152,3.93,4.55,0.85,6.07
13.18177604675293,4.12,4.95,0.5,6.45
13.196630954742432,4.21,5.15,0.16,6.65
13.277504920959473,4.2,5.39,-0.2,6.83
13.279841899871826,4.07,5.49,-0.45,6.84
13.281497955322266,3.8,5.42,-0.66,6.65
13.297215938568115,3.47,5.24,-0.76,6.33
13.29940390586853,2.99,5.0,-0.71,5.86
13.313570976257324,2.37,4.56,-0.63,5.17
13.315314769744873,1.67,3.94,-0.7,4.33
13.330307960510254,0.79,3.07,-0.84,3.27
13.33237075805664,-0.18,2.23,-1.02,2.45
13.346730709075928,-1.2,1.48,-1.17,2.23
13.428807735443115,-2.17,0.8,-1.41,2.7
13.430381774902344,-2.9,0.17,-1.71,3.37
13.450588941574097,-3.56,-0.31,-1.75,3.97
13.452622890472412,-4.83,-1.04,-1.72,5.23
13.463979721069336,-5.54,-1.58,-1.54,5.96
13.466032028198242,-5.95,-1.81,-1.03,6.3
13.480156898498535,-6.33,-2.2,-0.73,6.74
13.481947898864746,-6.32,-2.6,-0.62,6.86
13.496693849563599,-5.98,-2.96,-0.81,6.72
13.498474836349487,-5.4,-3.43,-1.27,6.52
13.57875394821167,-4.42,-3.41,-2.02,5.93
13.580313920974731,-4.37,-3.46,-2.01,5.92
13.601408958435059,-4.18,-2.41,-2.08,5.25
13.603397846221924,-3.81,-2.5,-1.51,4.8
13.61401081085205,-2.87,-3.02,-0.81,4.24
13.615975856781006,-1.95,-2.94,-0.18,3.53
13.630159854888916,-1.19,-2.38,0.47,2.7
13.63224172592163,-0.56,-1.98,0.86,2.23
13.646749019622803,0.16,-2.11,1.12,2.39
13.648428916931152,0.95,-2.5,1.31,2.97
13.728870868682861,1.5,-2.82,1.63,3.58
13.730370044708252,1.67,-2.91,1.97,3.89
13.750460863113403,1.26,-2.68,1.95,3.54
13.752205848693848,0.99,-2.3,1.89,3.13
13.764011859893799,0.72,-2.01,2.23,3.08
13.766259908676147,0.58,-1.63,2.77,3.26
13.78017282485962,0.56,-1.21,3.26,3.52
13.78207778930664,0.92,-0.71,3.47,3.65
13.796681880950928,1.34,-0.04,3.39,3.64
13.798515796661377,1.81,0.7,3.18,3.72
13.87854790687561,2.37,1.33,2.91,3.98
13.8800048828125,2.9,1.88,2.68,4.37
13.900462865829468,3.27,2.38,2.59,4.8
13.902381896972656,3.58,2.85,2.3,5.12
13.913802862167358,3.76,3.49,1.98,5.49
13.915375709533691,3.83,4.17,1.81,5.94
13.930130958557129,4.11,4.9,1.41,6.54
13.931605815887451,4.11,4.92,1.36,6.55
13.946605920791626,3.79,4.91,1.01,6.28
13.948299884796143,3.45,4.75,0.79,5.92
14.027689933776855,2.95,4.57,0.56,5.46
14.029775857925415,2.3,4.32,0.36,4.9
14.031507015228271,1.65,3.82,0.05,4.16
14.047255992889404,0.8,3.19,-0.24,3.29
14.049075841903687,0.06,2.65,-0.29,2.66
14.063896894454956,-1.1,1.89,-0.43,2.22
14.066036939620972,-2.27,1.26,-0.45,2.63
14.080022811889648,-3.25,0.69,-0.36,3.34
14.08173394203186,-4.02,-0.03,-0.49,4.04
14.096746921539307,-4.57,-0.92,-0.61,4.7
14.178390979766846,-4.63,-1.8,-0.84,5.03
14.180315971374512,-4.6,-2.47,-1.26,5.37
14.18192195892334,-4.53,-3.06,-1.68,5.71
14.197234869003296,-4.55,-3.26,-1.95,5.92
14.199128866195679,-4.71,-3.04,-2.17,6.01
14.213599920272827,-4.99,-2.84,-2.51,6.26
14.215449810028076,-5.25,-2.67,-2.64,6.45
14.230039834976196,-5.37,-2.41,-2.55,6.41
14.23227596282959,-5.13,-2.19,-2.34,6.04
14.24688196182251,-4.66,-2.14,-2.19,5.57
14.326596736907959,-3.91,-2.23,-2.03,4.93
14.328296899795532,-2.99,-2.53,-1.64,4.24
14.334053993225098,-2.17,-2.74,-0.99,3.63
14.33586597442627,-1.44,-2.8,-0.42,3.17
14.347108840942383,-0.53,-2.67,0.03,2.72
14.349023818969727,0.87,-2.79,0.58,2.97
14.363585948944092,1.42,-3.18,0.72,3.55
14.365439891815186,1.91,-3.64,0.91,4.21
14.380060911178589,2.29,-4.16,1.17,4.89
14.381814002990723,2.63,-4.51,1.47,5.42
14.461979866027832,3.01,-4.74,1.7,5.86
14.463901042938232,3.38,-4.54,1.86,5.95
14.465884923934937,3.47,-3.64,1.81,5.34
14.480515003204346,3.55,-2.66,1.67,4.73
14.482887744903564,3.44,-1.32,1.46,3.96
14.496801853179932,3.4,0.04,1.38,3.66
14.498339891433716,3.42,1.13,1.37,3.85
14.513421058654785,3.43,2.11,1.32,4.23
14.515192985534668,3.74,3.11,1.13,4.99
14.530081748962402,4.03,3.81,0.9,5.61
14.609539031982422,4.23,4.42,0.6,6.14
14.61109185218811,4.48,4.85,0.33,6.61
14.617228031158447,4.58,5.1,0.08,6.85
14.619218826293945,4.61,5.31,-0.15,7.03
14.630735874176025,4.55,5.39,-0.37,7.06
14.633007049560547,4.34,5.42,-0.52,6.96
14.646864891052246,4.07,5.31,-0.66,6.72
14.648780822753906,3.62,5.06,-0.79,6.27
14.663479804992676,2.99,4.78,-0.84,5.7
14.66531491279602,2.23,4.46,-0.99,5.08
14.744592905044556,0.3,3.25,-1.45,3.57
14.746649742126465,-0.72,2.31,-1.57,2.88
14.748072862625122,-1.72,1.07,-1.6,2.58
14.763915061950684,-2.56,0.15,-1.46,2.95
14.765713930130005,-3.68,-0.36,-1.37,3.94
14.78020691871643,-4.55,-0.72,-1.01,4.71
14.78211498260498,-5.56,-0.83,-0.9,5.69
14.796689987182617,-5.71,-0.82,-0.87,5.83
14.7983717918396,-5.68,-1.1,-0.99,5.86
14.81349492073059,-5.42,-1.76,-1.03,5.79
14.815282821655273,-5.2,-2.58,-1.13,5.91
14.89405083656311,-4.98,-3.4,-1.33,6.17
14.896040916442871,-4.72,-3.95,-1.43,6.31
14.897596836090088,-4.6,-4.1,-1.35,6.3
14.913910865783691,-4.45,-3.85,-1.12,5.98
14.915932893753052,-4.34,-3.56,-0.86,5.67
14.93020486831665,-4.27,-3.62,-0.45,5.61
14.932066917419434,-4.09,-4.1,0.06,5.79
14.946815967559814,-3.44,-4.62,0.54,5.78
14.948442935943604,-2.34,-4.55,0.84,5.18
14.963483810424805,-1.13,-3.86,1.14,4.18
15.042829990386963,-0.11,-3.41,1.4,3.68
15.044334888458252,0.97,-3.3,1.77,3.86
15.050801753997803,1.68,-2.79,2.05,3.84
15.052886962890625,2.21,-2.27,2.12,3.81
15.063825845718384,2.39,-1.54,1.98,3.46
15.065903902053833,2.31,-0.78,1.69,2.96
15.080204963684082,2.27,-0.03,1.51,2.72
15.082077980041504,2.32,-0.18,1.6,2.82
15.096613883972168,2.32,-0.09,1.65,2.84
15.098151922225952,2.33,0.14,1.61,2.83
15.176966905593872,2.31,0.51,1.54,2.82
15.178785800933838,2.25,0.87,1.51,2.84
15.18049693107605,2.2,1.26,1.55,2.97
15.197317838668823,2.18,1.76,1.58,3.21
15.199429988861084,2.24,2.32,1.45,3.53
15.213523864746094,2.32,2.98,1.25,3.97
15.215244770050049,2.66,3.54,0.92,4.52
15.230063915252686,2.9,3.98,0.54,4.95
15.231846809387207,3.08,4.25,0.2,5.25
15.246763706207275,3.13,4.42,0.04,5.41
15.325485706329346,3.19,4.55,-0.11,5.55
15.32695198059082,3.22,4.63,-0.42,5.65
15.334082841873169,3.12,4.49,-0.72,5.51
15.335912942886353,2.88,4.21,-1.01,5.19
15.347426891326904,2.42,3.82,-1.19,4.67
15.349868774414062,1.77,3.34,-1.37,4.02
15.36386489868164,1.02,2.84,-1.43,3.33
15.36564588546753,0.3,2.44,-1.35,2.8
15.380514860153198,-0.42,1.92,-1.12,2.26
15.382630825042725,-1.19,1.42,-0.9,2.05
15.463682889938354,-1.87,0.49,-0.92,2.14
15.465322971343994,-2.43,-0.56,-0.84,2.63
15.484156847000122,-3.26,-1.57,-1.0,3.75
15.486273765563965,-3.72,-2.29,-1.25,4.54
15.49717378616333,-3.94,-2.39,-1.3,4.78
15.498976707458496,-4.13,-2.55,-1.41,5.05
15.513683795928955,-4.45,-2.76,-1.63,5.48
15.515450954437256,-4.97,-2.91,-1.94,6.07
15.530255794525146,-5.45,-2.97,-2.12,6.55
15.53235387802124,-5.68,-2.95,-2.04,6.71
15.612433910369873,-5.72,-2.69,-1.84,6.58
15.613987922668457,-5.55,-2.48,-1.64,6.29
15.633956909179688,-5.08,-2.41,-1.34,5.78
15.635826826095581,-4.27,-2.27,-0.99,4.93
15.647167921066284,-3.33,-2.27,-0.58,4.07
15.648772716522217,-2.2,-2.07,-0.24,3.03
15.663558006286621,-1.01,-1.8,0.1,2.06
15.665169715881348,0.04,-1.51,0.28,1.53
15.680109977722168,1.01,-1.3,0.49,1.71
15.682109832763672,1.72,-1.32,0.7,2.27
15.762374877929688,2.07,-1.54,0.87,2.72
15.7638578414917,2.21,-2.02,0.89,3.12
15.784055709838867,2.27,-2.75,0.83,3.66
15.785825729370117,2.34,-3.41,0.86,4.22
15.797126770019531,2.41,-3.81,1.08,4.63
15.799322843551636,2.56,-4.13,1.37,5.04
15.81358289718628,2.77,-4.03,1.59,5.14
15.815491914749146,2.94,-3.77,1.78,5.1
15.83010482788086,2.87,-2.73,1.79,4.34
15.832130908966064,2.88,-0.37,1.74,3.38
15.911234855651855,3.09,0.72,1.72,3.6
15.913418769836426,3.37,1.74,1.57,4.1
15.91485595703125,3.75,2.65,1.23,4.75
15.930700778961182,4.01,3.3,0.77,5.25
15.93307876586914,4.51,3.8,0.34,5.9
15.94690489768982,4.64,4.07,0.0,6.17
15.948610782623291,4.61,4.42,-0.26,6.39
15.963491916656494,4.69,4.58,-0.51,6.57
15.965163707733154,4.68,4.75,-0.83,6.71
15.980111837387085,4.53,4.82,-1.1,6.7
16.061558723449707,4.27,4.69,-1.28,6.47
16.063681840896606,3.89,4.5,-1.45,6.12
16.065549850463867,3.48,4.13,-1.64,5.64
16.080654859542847,2.96,3.62,-1.8,5.01
16.082934856414795,2.24,3.08,-1.87,4.24
16.096917867660522,1.19,2.45,-1.83,3.28
16.09859275817871,0.01,2.0,-1.7,2.62
16.11344003677368,-1.3,1.45,-1.69,2.57
16.11538600921631,-2.48,0.6,-1.71,3.07
16.130168914794922,-3.61,0.16,-1.61,3.95
16.209966897964478,-4.36,-0.08,-1.57,4.63
16.211928844451904,-4.95,-0.39,-1.38,5.15
16.213987827301025,-5.22,-0.51,-1.11,5.36
16.215889930725098,-5.32,-0.53,-0.88,5.41
16.23066282272339,-5.23,-0.9,-0.81,5.36
16.232797861099243,-4.99,-2.79,-1.11,5.82
16.246898889541626,-4.9,-3.4,-1.1,6.06
16.248746871948242,-4.82,-3.44,-1.13,6.02
16.263465881347656,-4.69,-3.1,-1.04,5.71
16.26536989212036,-4.51,-2.88,-0.9,5.42
16.344395875930786,-4.26,-2.88,-0.71,5.19
16.346422910690308,-3.87,-3.21,-0.31,5.03
16.34794783592224,-3.27,-3.67,0.18,4.91
16.364054918289185,-2.5,-3.96,0.67,4.73
16.366267919540405,-1.38,-3.71,1.11,4.11
16.380367755889893,-0.25,-3.16,1.18,3.38
16.38228988647461,0.92,-3.01,1.31,3.4
16.396740913391113,2.1,-3.41,1.62,4.32
16.39844584465027,2.71,-3.0,1.81,4.42
16.413489818572998,2.96,-2.87,1.79,4.49
16.493361949920654,2.77,-2.41,1.63,4.01
16.494991779327393,2.35,-1.84,1.51,3.34
16.500738859176636,1.82,-1.46,1.53,2.79
16.50264596939087,1.48,-1.22,1.66,2.53
16.51397180557251,1.49,-0.93,1.81,2.52
16.51608896255493,1.56,-0.61,1.95,2.57
16.530314922332764,1.58,-0.22,1.97,2.53
16.532269954681396,1.67,0.24,1.96,2.58
16.54678201675415,1.85,0.77,1.89,2.75
16.548638820648193,2.25,1.48,1.64,3.15
16.627710819244385,2.81,2.18,1.35,3.8
16.62982487678528,3.18,2.86,1.04,4.4
16.63132381439209,3.48,3.53,0.72,5.0
16.647310733795166,3.61,4.37,0.17,5.67
16.648903846740723,3.64,4.86,-0.17,6.07
16.663589000701904,3.68,5.21,-0.45,6.39
16.665360927581787,3.66,5.43,-0.73,6.58
16.680210828781128,3.56,5.49,-1.03,6.62
16.68196988105774,3.13,5.2,-1.16,6.17
16.69686484336853,2.55,4.68,-1.39,5.5
16.77629280090332,1.95,4.25,-1.74,4.98
16.777743816375732,1.06,3.83,-1.91,4.4
16.78417682647705,0.17,3.48,-1.98,4.0
16.78600788116455,-0.88,3.12,-1.85,3.73
16.797266960144043,-2.34,2.77,-1.66,3.98
16.799386978149414,-3.51,2.5,-1.37,4.52
16.813568830490112,-4.35,1.85,-1.25,4.88
16.815309047698975,-4.66,0.65,-1.17,4.84
16.83019185066223,-4.6,-0.55,-1.02,4.74
16.831936836242676,-4.62,-1.75,-0.74,4.99
16.911017894744873,-4.59,-2.65,-0.43,5.31
16.913087844848633,-4.4,-3.29,-0.35,5.5
16.914836883544922,-4.41,-3.43,-0.39,5.6
16.930744886398315,-4.52,-3.52,-0.55,5.75
16.93256688117981,-4.71,-3.59,-0.98,6.0
16.947041034698486,-4.73,-3.56,-1.57,6.12
16.948983907699585,-4.62,-3.13,-2.11,5.96
16.963502883911133,-4.47,-2.46,-2.59,5.72
16.96526288986206,-2.95,-2.3,-2.7,4.61
16.98042392730713,-2.4,-2.7,-2.13,4.19
17.059720993041992,-1.86,-2.94,-1.12,3.65
17.061291933059692,-1.43,-2.81,-0.45,3.18
17.067311763763428,-0.86,-2.5,0.1,2.64
17.06944704055786,-0.1,-2.4,0.61,2.47
17.080668926239014,0.56,-2.82,0.97,3.03
17.08248996734619,1.15,-3.48,1.15,3.84
17.096890926361084,1.67,-4.38,1.15,4.82
17.098516941070557,1.99,-5.27,1.02,5.72
17.11347484588623,2.18,-5.97,1.01,6.43
17.11540985107422,2.37,-6.28,1.14,6.8
17.196146965026855,2.5,-6.03,1.26,6.64
17.198235034942627,2.43,-4.9,1.25,5.61
17.21754503250122,2.32,-3.75,1.33,4.6
17.21941590309143,2.15,-2.27,1.51,3.47
17.230726718902588,2.19,-0.62,1.65,2.81
17.23245096206665,2.51,0.98,1.61,3.13
17.24694299697876,2.89,2.34,1.48,4.0
17.24863576889038,3.33,3.45,1.2,4.94
17.26358699798584,3.63,4.4,0.86,5.76
17.265275955200195,4.01,5.0,0.42,6.42
17.343801975250244,4.14,5.24,0.06,6.67
17.345715045928955,4.21,5.45,-0.22,6.89
17.34741973876953,4.12,5.56,-0.4,6.93
17.36405897140503,3.97,5.67,-0.5,6.93
17.3657169342041,3.69,5.92,-0.42,6.98
17.38020372390747,3.68,5.93,-0.42,6.99
17.381788730621338,3.07,5.0,-0.44,5.88
17.396626949310303,2.73,4.26,-0.64,5.1
17.398287773132324,2.26,3.47,-0.94,4.24
17.413599014282227,1.63,2.81,-1.14,3.44
17.4932758808136,0.9,2.4,-1.4,2.92
17.49492597579956,-0.04,1.99,-1.44,2.45
17.500833988189697,-0.91,1.53,-1.39,2.25
17.50295090675354,-1.7,1.05,-1.23,2.34
17.51397180557251,-2.74,0.41,-0.95,2.92
17.515706062316895,-3.43,0.18,-0.87,3.54
17.53035283088684,-4.0,-0.29,-0.95,4.12
17.53204083442688,-4.51,-0.84,-1.12,4.72
17.546790838241577,-4.69,-1.5,-1.23,5.07
17.54848289489746,-4.63,-2.14,-1.34,5.27
17.627554893493652,-4.72,-2.73,-1.36,5.61
17.629758834838867,-4.68,-3.18,-1.48,5.84
17.631227016448975,-4.75,-3.48,-1.73,6.13
17.647361755371094,-5.0,-3.38,-1.93,6.33
17.649350881576538,-5.26,-3.15,-1.99,6.44
17.663756847381592,-5.61,-3.05,-1.6,6.58
17.665551900863647,-5.4,-3.49,-1.05,6.51
17.68018889427185,-4.5,-4.28,-0.67,6.24
17.681984901428223,-3.38,-4.58,-0.25,5.69
17.697203874588013,-2.3,-4.2,0.16,4.79
17.77690887451172,-0.5,-3.74,0.99,3.9
17.7791109085083,0.36,-3.73,1.54,4.05
17.7810697555542,1.18,-3.62,2.15,4.37
17.797423839569092,0.97,-3.0,2.26,3.87
17.79940176010132,1.35,-2.29,2.17,3.43
17.813930988311768,1.5,-1.69,1.96,2.99
17.815738916397095,1.66,-1.28,2.01,2.9
17.830172061920166,1.92,-0.72,2.2,3.0
17.831815719604492,2.27,-0.13,2.16,3.13
17.84692883491516,2.45,0.4,2.01,3.19
17.925670862197876,2.57,0.77,1.81,3.23
17.92714500427246,2.55,1.19,1.56,3.21
17.934207916259766,2.44,1.66,1.44,3.28
17.9359769821167,2.31,1.93,1.35,3.29
17.94728684425354,2.32,2.39,1.24,3.55
17.94920301437378,2.46,2.91,1.15,3.98
17.963685989379883,2.7,3.58,1.12,4.62
17.965422868728638,2.99,4.33,1.1,5.37
17.980220794677734,3.23,4.71,1.01,5.79
17.98195791244507,3.38,4.99,0.81,6.08
18.06081986427307,3.37,5.04,0.58,6.09
18.062927722930908,3.08,4.81,0.27,5.71
18.064575910568237,2.76,4.52,0.01,5.29
18.08072590827942,2.33,4.24,-0.19,4.84
18.082576751708984,1.81,3.87,-0.41,4.29
18.097079753875732,1.23,3.72,-0.61,3.96
18.098782062530518,0.71,3.55,-0.78,3.7
18.11353302001953,0.24,3.4,-0.79,3.49
18.11534070968628,-0.07,3.15,-0.75,3.23
18.130287885665894,-1.05,1.73,-0.85,2.19
18.209630012512207,-1.72,0.81,-0.94,2.12
18.211866855621338,-2.28,0.02,-1.26,2.6
18.218547821044922,-2.85,-0.7,-1.56,3.32
18.220757007598877,-3.51,-1.55,-1.6,4.15
18.231382846832275,-4.09,-2.24,-1.37,4.86
18.233207941055298,-4.53,-2.66,-1.01,5.34
18.24698305130005,-4.75,-2.97,-0.75,5.65
18.248751878738403,-4.86,-3.07,-0.59,5.77
18.263505935668945,-5.09,-3.04,-0.46,5.94
18.265274047851562,-5.32,-3.11,-0.31,6.17
18.34380292892456,-5.31,-3.09,-0.15,6.14
18.345614910125732,-5.04,-3.21,-0.12,5.97
18.347226858139038,-4.57,-3.68,-0.34,5.87
18.3641300201416,-4.0,-4.19,-0.22,5.79
18.36575174331665,-3.3,-4.42,0.06,5.51
18.380483865737915,-2.58,-4.39,0.37,5.1
18.382332801818848,-1.74,-4.15,0.82,4.57
18.396846771240234,-1.0,-3.88,1.26,4.2
18.398571014404297,-0.35,-3.63,1.5,3.94
18.413477897644043,0.25,-3.44,1.5,3.76
18.492600917816162,0.85,-3.45,1.28,3.77
18.494075775146484,1.4,-3.56,1.03,3.96
18.50075888633728,1.94,-3.68,0.93,4.26
18.50265073776245,2.42,-3.66,1.04,4.5
18.51398992538452,2.86,-3.47,1.21,4.65
18.515681743621826,3.6,-2.05,0.97,4.25
18.530354976654053,3.67,-0.72,0.71,3.8
18.53219699859619,3.72,0.72,0.46,3.81
18.54682683944702,3.76,1.9,0.44,4.23
18.54872179031372,3.78,2.92,0.39,4.79
18.627543926239014,3.86,3.7,0.26,5.35
18.629681825637817,4.04,4.26,0.11,5.87
18.631207942962646,4.27,4.69,-0.08,6.34
18.647398948669434,4.45,5.01,-0.34,6.7
18.649466037750244,4.59,5.19,-0.64,6.95
18.663774013519287,4.68,5.32,-0.91,7.14
18.665602922439575,4.62,5.35,-1.16,7.16
18.68020486831665,4.46,5.25,-1.33,7.01
18.681923866271973,4.09,5.09,-1.38,6.67
18.696905851364136,3.67,5.03,-1.31,6.36
18.77576184272766,3.1,4.84,-1.32,5.89
18.777184009552002,2.47,4.45,-1.45,5.29
18.784040927886963,1.78,3.73,-1.66,4.45
18.785903930664062,0.89,2.75,-1.84,3.42
18.797274827957153,-0.06,1.76,-1.9,2.59
18.79906702041626,-1.02,1.07,-1.86,2.37
18.813687801361084,-1.79,0.45,-1.76,2.55
18.815387725830078,-2.62,-0.08,-1.71,3.12
18.83016085624695,-3.6,-0.57,-1.67,4.0
18.831984996795654,-4.45,-0.86,-1.6,4.8
18.91072392463684,-5.24,-1.12,-1.46,5.55
18.91279888153076,-6.06,-2.21,-1.6,6.64
18.91438388824463,-5.96,-2.85,-1.61,6.79
18.93072271347046,-5.74,-3.36,-1.74,6.87
18.932453870773315,-5.57,-3.47,-1.97,6.85
18.94708490371704,-5.34,-3.36,-2.07,6.64
18.948892831802368,-4.89,-3.07,-2.13,6.15
18.963549852371216,-4.34,-2.8,-2.05,5.55
18.965338706970215,-4.04,-2.69,-1.63,5.12
18.98024582862854,-3.47,-2.92,-0.94,4.63
19.05976891517639,-2.73,-3.47,-0.47,4.44
19.06125283241272,-1.97,-3.8,-0.08,4.28
19.067347049713135,-1.21,-3.99,0.41,4.18
19.069200038909912,-0.48,-4.19,1.03,4.34
19.080689907073975,0.31,-4.07,1.43,4.32
19.082571029663086,1.08,-3.79,1.69,4.28
19.097277879714966,1.63,-3.71,2.17,4.59
19.09909677505493,1.56,-3.02,2.44,4.18
19.113541841506958,1.44,-2.45,2.54,3.81
19.115211963653564,1.18,-1.97,2.6,3.46
19.194032907485962,0.96,-1.6,2.62,3.21
19.196035861968994,1.11,-1.01,2.57,2.97
19.197950839996338,1.37,-0.56,2.4,2.81
19.21407389640808,1.61,-0.13,2.29,2.8
19.215706825256348,1.84,0.34,2.2,2.88
19.230412006378174,1.87,0.57,2.1,2.86
19.232003927230835,2.1,1.07,1.96,3.06
19.24683690071106,2.52,1.82,1.97,3.68
19.24869680404663,3.33,3.42,1.75,5.08
19.26360273361206,3.69,4.14,1.52,5.75
19.343791961669922,3.94,4.78,1.14,6.29
19.34610080718994,4.16,4.97,0.8,6.53
19.348052978515625,4.19,5.05,0.41,6.57
19.36435604095459,4.16,5.04,0.15,6.53
19.366410732269287,4.23,4.91,-0.17,6.48
19.38060688972473,4.27,4.69,-0.45,6.35
19.38255286216736,4.09,4.34,-0.82,6.01
19.3974027633667,3.78,3.78,-1.16,5.47
19.399240016937256,3.33,3.04,-1.6,4.78
19.413729906082153,2.53,2.42,-1.87,3.96
19.493385791778564,1.53,2.1,-1.89,3.21
19.494950771331787,0.28,2.01,-1.94,2.8
19.500735759735107,-1.3,1.75,-2.15,3.06
19.502689838409424,-2.42,1.14,-2.14,3.42
19.514050006866455,-3.6,0.16,-1.82,4.03
19.51578998565674,-4.46,-0.95,-1.24,4.72
19.530375957489014,-5.22,-1.79,-0.95,5.59
19.532018899917603,-5.45,-2.42,-0.75,6.01
19.546916007995605,-5.72,-2.98,-0.55,6.47
19.54873490333557,-6.03,-3.26,-0.42,6.86
19.628577709197998,-6.33,-3.43,-0.52,7.21
19.63067102432251,-6.48,-3.52,-0.84,7.42
19.63229489326477,-6.46,-3.26,-1.14,7.32
19.647578716278076,-6.2,-2.65,-1.27,6.86
19.649405002593994,-5.86,-1.8,-1.39,6.28
19.663712978363037,-4.87,-0.73,-1.6,5.17
19.66538906097412,-3.51,-1.43,-1.3,4.0
19.680237770080566,-2.75,-1.63,-0.89,3.31
19.681962966918945,-1.86,-1.68,-0.32,2.52
19.696992874145508,-1.05,-1.52,0.19,1.85
19.777113914489746,-0.15,-1.37,0.6,1.5
19.77886986732483,0.69,-1.37,0.92,1.78
19.78038501739502,1.31,-1.7,1.2,2.45
19.797729015350342,1.95,-2.19,1.25,3.18
19.800028800964355,2.41,-2.79,1.13,3.85
19.813731908798218,2.82,-3.45,0.98,4.56
19.815587043762207,3.06,-3.76,0.99,4.94
19.83031988143921,3.13,-3.6,1.29,4.94
19.83200192451477,3.12,-3.35,1.56,4.83
19.846900939941406,3.11,-2.71,1.62,4.43
19.927266836166382,3.01,-1.96,1.63,3.94
19.929280757904053,2.77,-1.43,1.58,3.49
19.93087387084961,2.79,-0.53,1.48,3.2
19.947526931762695,2.91,0.5,1.49,3.3
19.949529886245728,3.11,1.46,1.49,3.74
19.9636869430542,3.53,2.49,1.4,4.54
19.965378761291504,3.98,3.07,1.11,5.14
19.98025393486023,4.22,3.67,0.76,5.64
19.982019901275635,4.43,4.13,0.39,6.06
19.99700689315796,4.49,4.47,0.04,6.33
20.077888011932373,4.5,4.81,-0.37,6.59
20.08000087738037,4.38,5.19,-1.02,6.86
20.081328868865967,4.16,5.19,-1.25,6.76
20.09746503829956,3.72,5.19,-1.41,6.53
20.099167823791504,3.03,5.06,-1.55,6.09
20.113780975341797,2.17,4.55,-1.55,5.27
20.11543583869934,1.05,3.91,-1.49,4.31
20.13041591644287,-0.3,3.05,-1.37,3.35
20.13228178024292,-1.69,2.08,-1.26,2.96
20.14725089073181,-2.75,1.37,-1.19,3.29
20.228652954101562,-3.66,0.91,-1.23,3.96
20.23065686225891,-4.11,0.83,-1.02,4.31
20.23241901397705,-4.72,0.65,-1.03,4.87
20.247469902038574,-5.11,0.0,-1.17,5.24
20.249367713928223,-4.96,-0.64,-1.06,5.11
20.26375389099121,-5.28,-1.48,-0.88,5.55
20.26546883583069,-5.33,-2.3,-0.51,5.82
20.280213832855225,-5.33,-3.03,-0.29,6.13
20.281877040863037,-5.24,-3.83,-0.39,6.5
20.297035932540894,-5.15,-4.25,-0.93,6.74
20.378309726715088,-5.15,-4.21,-1.4,6.79
20.380271911621094,-5.36,-2.92,-1.52,6.29
20.382479906082153,-5.44,-2.21,-1.29,6.01
20.39764094352722,-4.69,-2.35,-0.78,5.3
20.399662971496582,-3.2,-3.32,-0.34,4.62
20.41378688812256,-1.49,-4.32,-0.23,4.57
20.41556406021118,0.08,-4.7,0.33,4.71
20.430269718170166,0.76,-4.71,0.59,4.8
20.432077884674072,1.94,-4.46,0.91,4.94
20.447229862213135,2.41,-4.47,1.15,5.2
20.527906894683838,2.43,-4.15,1.6,5.06
20.530037879943848,2.1,-3.63,2.07,4.67
20.531517028808594,1.58,-2.87,2.57,4.16
20.547513961791992,1.29,-2.08,2.91,3.8
20.54948902130127,1.14,-1.37,3.0,3.48
20.563843727111816,1.19,-0.72,2.95,3.26
20.565862894058228,1.36,-0.04,2.73,3.05
20.580734729766846,1.57,0.65,2.4,2.94
20.582462787628174,1.77,1.3,1.97,2.95
20.597153902053833,2.05,1.94,1.57,3.22
20.67668581008911,2.21,2.52,1.25,3.57
20.678194046020508,2.15,2.95,1.01,3.78
20.684895992279053,2.27,3.38,0.88,4.16
20.686831951141357,2.45,3.77,0.8,4.56
20.697443962097168,2.84,4.43,0.69,5.3
20.699552059173584,3.15,4.84,0.54,5.79
20.713775873184204,3.4,4.89,0.39,5.96
20.71566390991211,3.61,5.09,0.18,6.24
20.730313777923584,3.76,5.12,0.0,6.35
20.7319598197937,3.83,5.01,-0.31,6.31
20.811858892440796,3.62,4.85,-0.76,6.09
20.813840866088867,3.26,4.48,-0.99,5.62
20.8152437210083,2.86,4.22,-1.3,5.26
20.83081889152527,2.46,3.86,-1.66,4.86
20.833330869674683,1.58,3.32,-1.99,4.18
20.847203731536865,-1.0,1.72,-1.89,2.74
20.8488450050354,-2.38,0.86,-1.73,3.06
20.863637924194336,-3.54,-0.39,-1.43,3.83
20.86567974090576,-4.31,-1.43,-1.05,4.66
20.88071870803833,-4.63,-2.17,-0.68,5.15
20.962327003479004,-4.63,-2.86,-0.41,5.45
20.96362590789795,-4.54,-3.37,-0.41,5.66
20.9848690032959,-4.63,-3.61,-0.54,5.89
20.985864877700806,-4.76,-3.45,-0.79,5.93
20.987335920333862,-4.94,-3.1,-1.14,5.94
20.99750280380249,-4.98,-2.54,-1.43,5.77
20.99940776824951,-4.92,-2.08,-1.51,5.55
21.013877868652344,-4.79,-1.85,-1.63,5.38
21.015591859817505,-4.51,-2.11,-1.63,5.23
21.030343055725098,-3.68,-2.86,-1.08,4.78
21.032193899154663,-3.04,-3.21,-0.72,4.47
21.112658977508545,-2.43,-3.48,-0.5,4.27
21.114205837249756,-1.76,-3.62,-0.02,4.02
21.134382724761963,-1.3,-3.77,0.78,4.06
21.136396884918213,-0.92,-3.83,1.53,4.22
21.147523880004883,-0.45,-4.05,1.92,4.5
21.149248838424683,-0.15,-4.05,2.04,4.53
21.16388177871704,0.54,-4.21,2.11,4.74
21.165855884552002,1.13,-4.55,2.3,5.22
21.180450916290283,1.77,-4.83,2.38,5.66
21.18223476409912,2.34,-4.75,2.31,5.77
21.26276397705078,3.27,-3.13,1.85,4.89
21.264344930648804,3.63,-1.51,1.38,4.16
21.284331798553467,3.9,-0.03,1.07,4.04
21.2863450050354,4.04,1.36,0.91,4.35
21.297482013702393,4.1,2.45,0.87,4.85
21.29966974258423,4.16,3.27,0.85,5.35
21.31378698348999,4.19,3.86,0.79,5.75
21.315934896469116,4.24,4.44,0.65,6.17
21.330334901809692,4.41,4.81,0.4,6.53
21.33202886581421,4.57,5.16,0.07,6.89
21.41285276412964,4.72,5.38,-0.27,7.16
21.414597034454346,4.72,5.45,-0.6,7.23
21.43522882461548,4.63,5.4,-0.81,7.15
21.43742799758911,4.37,5.41,-0.91,7.01
21.448200941085815,4.1,5.46,-1.0,6.9
21.45052671432495,3.76,5.33,-1.08,6.61
21.464500904083252,3.33,4.91,-1.22,6.05
21.46683382987976,2.6,4.33,-1.4,5.24
21.480414867401123,1.92,3.59,-1.41,4.3
21.482362747192383,0.45,2.57,-1.6,3.06
21.562835931777954,-0.65,1.79,-1.68,2.53
21.564161777496338,-1.51,1.25,-1.61,2.53
21.584311962127686,-2.45,0.66,-1.59,2.99
21.58637285232544,-3.51,0.07,-1.63,3.87
21.597359895706177,-4.34,-0.58,-1.5,4.62
21.599623918533325,-5.06,-1.22,-1.33,5.37
21.61383891105652,-6.0,-1.81,-1.23,6.38
21.616001844406128,-6.53,-2.84,-0.93,7.18
21.63055992126465,-6.44,-3.39,-1.2,7.37
21.632672786712646,-6.2,-3.62,-1.41,7.31
21.713794708251953,-5.87,-3.58,-1.52,7.04
21.715662002563477,-5.38,-3.3,-1.65,6.52
21.73448371887207,-4.81,-2.84,-1.78,5.86
21.736318826675415,-4.12,-2.33,-1.91,5.1
21.74747371673584,-3.45,-2.02,-1.68,4.33
21.749619960784912,-2.6,-2.05,-1.27,3.54
21.763915061950684,-1.81,-2.24,-0.72,2.96
21.76608896255493,-0.99,-2.21,-0.08,2.42
21.78047800064087,-0.14,-1.99,0.49,2.05
21.782071828842163,0.52,-2.14,0.96,2.4
21.86249089241028,1.26,-2.7,1.39,3.28
21.86398696899414,1.96,-3.24,1.8,4.19
21.88431191444397,2.53,-3.79,1.87,4.92
21.88610076904297,2.64,-3.79,1.8,4.95
21.897323846817017,2.07,-3.14,1.71,4.13
21.899037837982178,1.7,-2.73,2.07,3.82
21.913856983184814,1.3,-2.2,2.44,3.53
21.915791988372803,1.03,-1.73,2.71,3.37
21.930392742156982,0.83,-1.52,2.78,3.27
21.932167053222656,0.8,-0.97,2.77,3.04
22.01311182975769,0.82,-0.38,2.61,2.76
22.01482582092285,1.04,0.13,2.39,2.6
22.034445762634277,1.22,0.62,2.09,2.49
22.036386966705322,2.16,2.11,1.55,3.39
22.047574043273926,2.7,2.86,1.22,4.11
22.04960584640503,3.26,3.56,0.93,4.91
22.063793897628784,3.54,4.12,0.57,5.46
22.06585383415222,3.75,4.56,0.22,5.9
22.080442905426025,3.86,4.86,-0.09,6.2
22.08264398574829,3.84,5.09,-0.42,6.38
22.163946866989136,3.74,5.15,-0.76,6.4
22.16580891609192,3.62,5.04,-1.04,6.29
22.184508800506592,3.29,4.98,-1.31,6.11
22.18663191795349,2.91,4.89,-1.56,5.9
22.19759178161621,2.27,4.48,-1.78,5.32
22.200491905212402,1.51,4.01,-1.96,4.71
22.214098930358887,0.78,3.39,-2.17,4.09
22.216569900512695,0.15,2.6,-2.37,3.52
22.23044204711914,-0.97,1.53,-2.45,3.04
22.2322998046875,-2.15,0.46,-2.12,3.05
22.31317901611328,-3.39,-0.27,-1.68,3.79
22.314734935760498,-4.38,-0.89,-1.23,4.63
22.334613800048828,-5.02,-1.45,-0.87,5.29
22.336453914642334,-5.29,-2.02,-0.59,5.69
22.3475079536438,-5.34,-2.44,-0.59,5.9
22.349424839019775,-5.26,-3.01,-0.72,6.1
22.36433506011963,-5.29,-3.46,-0.8,6.37
22.366358757019043,-5.28,-3.66,-0.84,6.47
22.380446910858154,-5.34,-3.49,-0.85,6.43
22.38258981704712,-5.27,-3.2,-0.79,6.21
22.464825868606567,-4.52,-2.43,-0.79,5.19
22.466498851776123,-3.73,-2.58,-0.76,4.59
22.484477996826172,-3.0,-3.01,-0.64,4.29
22.48636293411255,-2.35,-3.15,-0.32,3.94
22.497474908828735,-1.67,-3.06,0.19,3.49
22.49970579147339,-0.89,-2.95,0.63,3.14
22.513895988464355,-0.2,-2.79,0.96,2.95
22.515958786010742,0.43,-3.02,1.22,3.28
22.530398845672607,1.13,-3.49,1.46,3.94
22.53223490715027,1.45,-3.77,1.6,4.34
22.614110946655273,2.08,-4.13,1.79,4.95
22.615807056427002,2.75,-4.21,1.98,5.4
22.634424924850464,3.24,-3.95,1.93,5.46
22.636241912841797,3.44,-3.51,1.55,5.15
22.64753484725952,3.37,-2.7,1.05,4.44
22.64986801147461,3.64,-1.25,0.8,3.93
22.66382598876953,3.36,-0.45,0.64,3.44
22.66574478149414,3.37,0.66,0.77,3.51
22.680436849594116,3.45,1.68,0.92,3.94
22.68228793144226,3.63,2.57,0.9,4.53
22.764380931854248,3.92,3.41,0.78,5.25
22.76632285118103,4.18,3.98,0.63,5.8
22.78452205657959,4.52,4.41,0.31,6.32
22.78641390800476,4.69,4.79,-0.07,6.7
22.797448873519897,4.86,4.97,-0.4,6.96
22.79962992668152,4.82,5.0,-0.58,6.96
22.81378483772278,4.6,5.15,-0.94,6.96
22.81557583808899,4.0,4.96,-1.26,6.49
22.830269813537598,3.42,4.67,-1.16,5.9
22.83213996887207,2.76,4.25,-1.04,5.17
22.912222862243652,1.94,3.57,-1.1,4.2
22.913992881774902,1.06,2.95,-1.13,3.33
22.915403842926025,0.02,2.3,-1.06,2.53
22.9310040473938,-0.68,1.63,-1.12,2.09
22.9336678981781,-1.76,0.95,-1.31,2.39
22.947333812713623,-2.91,0.03,-1.49,3.26
22.949496746063232,-3.78,-0.44,-1.38,4.04
22.963834762573242,-4.56,-0.57,-1.1,4.72
22.965877056121826,-5.3,-0.72,-1.08,5.45
22.980463981628418,-5.93,-0.93,-0.98,6.08
23.061985969543457,-6.16,-1.19,-1.0,6.35
23.064157962799072,-6.22,-1.56,-1.05,6.49
23.06706476211548,-5.97,-2.07,-1.29,6.44
23.080901861190796,-5.75,-2.5,-1.62,6.47
23.083077907562256,-5.48,-2.7,-1.96,6.41
23.097282886505127,-5.05,-2.58,-2.05,6.03
23.099243879318237,-4.76,-2.12,-1.94,5.56
23.113802909851074,-4.42,-1.83,-1.58,5.03
23.115789890289307,-3.54,-2.43,-1.0,4.4
23.130488872528076,-2.43,-3.03,-0.5,3.91
23.211434841156006,-1.47,-3.01,0.09,3.35
23.213701725006104,-0.73,-2.93,0.64,3.08
23.215099811553955,0.53,-2.58,1.22,2.9
23.230899810791016,1.63,-3.27,1.81,4.07
23.232542991638184,1.95,-3.48,2.06,4.48
23.247276782989502,1.75,-3.32,2.14,4.32
23.24906301498413,1.2,-3.39,2.28,4.25
23.263854026794434,0.7,-3.16,2.42,4.04
23.265655994415283,0.38,-2.87,2.64,3.91
23.280471801757812,0.3,-2.47,2.83,3.76
23.361228942871094,0.51,-2.05,2.84,3.53
23.36362600326538,0.77,-1.38,2.74,3.16
23.365267753601074,0.96,-0.46,2.39,2.61
23.381091833114624,1.27,0.36,2.23,2.59
23.384445905685425,1.31,0.9,2.01,2.56
23.397258758544922,1.83,1.79,1.84,3.15
23.399441719055176,2.33,2.58,1.63,3.83
23.413790941238403,2.92,3.28,1.53,4.65
23.415771961212158,3.37,3.84,1.31,5.27
23.430500984191895,3.73,4.29,1.11,5.79
23.511870861053467,4.08,4.77,0.92,6.34
23.51416301727295,4.46,5.19,0.7,6.87
23.516687870025635,4.68,5.33,0.52,7.11
23.530961990356445,4.64,5.34,0.24,7.07
23.533456802368164,4.48,5.17,-0.06,6.84
23.54725193977356,4.14,4.84,-0.3,6.37
23.548954010009766,3.82,4.49,-0.7,5.93
23.563814878463745,3.42,4.25,-0.98,5.54
23.56564998626709,2.44,3.52,-1.27,4.46
23.58049488067627,2.4,3.56,-1.28,4.48
23.661802768707275,-0.01,1.48,-1.8,2.33
23.663976907730103,-1.31,0.16,-1.66,2.12
23.665503978729248,-2.64,-0.88,-1.62,3.22
23.681102752685547,-3.69,-1.74,-1.28,4.27
23.683523893356323,-4.67,-2.61,-0.96,5.43
23.697234869003296,-5.23,-3.32,-0.68,6.23
23.699549913406372,-5.72,-3.91,-0.55,6.95
23.71380090713501,-5.94,-4.48,-0.51,7.45
23.715736865997314,-6.03,-4.99,-0.63,7.85
23.730506896972656,-6.14,-5.21,-0.85,8.09
23.813341856002808,-6.12,-5.0,-0.91,7.95
23.81489896774292,-5.82,-4.4,-0.94,7.35
23.834722995758057,-5.59,-3.59,-1.3,6.76
23.836692810058594,-5.06,-2.68,-1.48,5.91
23.847612857818604,-4.47,-2.17,-1.75,5.26
23.850013732910156,-3.8,-1.93,-1.81,4.63
23.86393976211548,-2.94,-2.2,-1.44,3.94
23.866106033325195,-2.54,-2.0,-0.91,3.35
23.880491733551025,-2.17,-1.43,-0.25,2.61
23.882877826690674,-1.36,-0.8,0.28,1.6
23.964359760284424,-0.46,-0.35,0.57,0.81
23.965844869613647,0.43,-0.44,0.7,0.93
23.984493732452393,1.15,-0.93,0.79,1.67
23.98633885383606,1.74,-1.64,0.77,2.51
23.9975848197937,2.25,-2.35,0.59,3.3
24.00008201599121,2.59,-3.05,0.34,4.01
24.013962745666504,2.66,-3.27,0.36,4.23
24.015913009643555,2.54,-2.84,0.64,3.86
24.030462741851807,2.26,-1.98,0.88,3.13
24.032835006713867,2.03,-0.84,0.96,2.39
24.114802837371826,2.0,0.35,0.84,2.19
24.117033004760742,2.09,1.38,0.85,2.64
24.13441801071167,2.38,2.23,0.81,3.36
24.136237859725952,2.7,2.88,0.66,4.0
24.14759874343872,3.06,3.32,0.49,4.54
24.149669885635376,3.47,3.61,0.33,5.01
24.163920879364014,3.8,3.78,0.18,5.36
24.16596794128418,4.01,3.93,-0.18,5.61
24.180572032928467,4.34,4.3,-0.43,6.12
24.182703971862793,4.34,4.57,-0.63,6.33
24.263738870620728,4.31,4.74,-0.76,6.45
24.26549983024597,4.16,5.0,-0.97,6.57
24.284218788146973,3.88,4.97,-1.03,6.38
24.28595495223999,3.57,4.87,-1.11,6.13
24.297616004943848,3.22,4.49,-1.28,5.67
24.299447059631348,2.78,3.94,-1.43,5.02
24.31396198272705,2.29,3.41,-1.51,4.37
24.315618991851807,1.67,2.91,-1.54,3.69
24.330426931381226,0.9,2.27,-1.69,2.96
24.332238912582397,0.1,1.8,-1.74,2.5
24.412667751312256,-0.81,1.14,-1.72,2.21
24.414150714874268,-1.66,0.68,-1.7,2.47
24.434367895126343,-2.45,0.21,-1.66,2.96
24.436218738555908,-4.23,-1.28,-1.57,4.69
24.44790482521057,-4.94,-2.0,-1.24,5.47
24.45094585418701,-5.66,-2.67,-0.9,6.32
24.46407699584961,-6.01,-3.02,-0.68,6.76
24.466800928115845,-6.06,-3.28,-0.58,6.91
24.480620861053467,-5.86,-3.35,-0.74,6.79
24.48293972015381,-5.57,-3.17,-0.97,6.48
24.564481735229492,-5.28,-2.85,-1.02,6.08
24.566195011138916,-4.82,-2.43,-0.91,5.47
24.584410905838013,-4.19,-2.65,-0.45,4.97
24.58625888824463,-3.0,-3.47,-0.06,4.58
24.59754180908203,-2.06,-4.07,0.46,4.58
24.599524974822998,-1.17,-3.98,0.98,4.26
24.613969802856445,-0.45,-3.74,1.29,3.98
24.615900993347168,0.39,-3.65,1.56,3.98
24.630404949188232,1.06,-3.66,1.89,4.25
24.63260293006897,1.53,-3.86,2.34,4.76
24.71451473236084,1.76,-4.05,2.63,5.13
24.716235876083374,1.47,-3.46,2.57,4.55
24.73443293571472,1.21,-3.1,2.4,4.1
24.73642086982727,1.09,-2.7,2.37,3.75
24.747764825820923,1.13,-2.18,2.49,3.49
24.750354766845703,1.26,-1.61,2.44,3.18
24.763961791992188,1.55,-0.85,2.17,2.79
24.766125917434692,1.67,-0.2,1.97,2.59
24.78052282333374,1.7,0.28,1.91,2.57
24.782808780670166,1.83,0.98,1.9,2.81
24.86424970626831,2.17,1.62,1.71,3.2
24.866010904312134,2.47,2.37,1.43,3.7
24.884464740753174,2.92,3.08,1.06,4.37
24.886388778686523,3.33,3.73,0.82,5.06
24.897557735443115,3.79,4.15,0.6,5.65
24.899783849716187,4.1,4.41,0.33,6.03
24.91396188735962,4.21,4.46,-0.01,6.13
24.91574192047119,4.16,4.35,-0.38,6.03
24.930482864379883,3.94,4.28,-0.77,5.86
24.932408809661865,3.64,4.28,-1.03,5.71
25.01451301574707,3.49,4.29,-1.33,5.68
25.015984058380127,3.18,4.24,-1.56,5.52
25.034190893173218,2.7,4.02,-1.75,5.14
25.036250829696655,2.18,3.71,-2.02,4.75
25.047606945037842,1.59,3.34,-2.39,4.4
25.049252033233643,0.84,2.65,-2.58,3.79
25.063971042633057,-0.2,1.45,-2.78,3.14
25.066069841384888,-1.37,0.09,-2.89,3.19
25.080602884292603,-2.89,-0.97,-2.73,4.09
25.08276605606079,-4.13,-1.76,-2.22,5.0
25.16786003112793,-5.56,-2.16,-1.68,6.19
25.169410943984985,-6.64,-2.31,-1.06,7.1
25.184386730194092,-7.33,-2.46,-0.72,7.76
25.186295986175537,-7.72,-2.86,-0.47,8.24
25.19763493537903,-7.62,-3.2,-0.43,8.27
25.19978904724121,-7.2,-3.52,-0.57,8.03
25.213940858840942,-5.55,-2.81,-1.56,6.41
25.216168880462646,-4.58,-2.16,-1.98,5.43
25.230515003204346,-3.64,-2.03,-1.91,4.58
25.232752799987793,-2.82,-2.36,-1.21,3.87
25.315950870513916,-2.49,-2.52,-0.32,3.55
25.31761884689331,-2.12,-2.41,0.49,3.24
25.33446192741394,-1.54,-2.07,1.07,2.79
25.336326837539673,-0.94,-1.71,1.47,2.44
25.347684860229492,-0.35,-1.76,1.49,2.33
25.349857807159424,0.38,-2.25,1.71,2.85
25.36415672302246,1.16,-2.93,1.75,3.6
25.366343021392822,1.69,-3.73,1.71,4.43
25.380647897720337,2.2,-4.22,1.74,5.06
25.382925987243652,2.71,-4.55,1.88,5.61
25.464821815490723,3.07,-4.44,1.98,5.74
25.466314792633057,3.31,-3.89,2.0,5.48
25.484469890594482,3.4,-3.12,1.84,4.96
25.486393928527832,3.5,-1.58,1.51,4.12
25.49758291244507,3.5,-0.13,1.13,3.68
25.49948501586914,3.58,1.19,0.79,3.85
25.51406192779541,3.71,2.28,0.65,4.4
25.516607761383057,3.85,2.99,0.59,4.91
25.530585765838623,4.09,3.48,0.62,5.4
25.532663822174072,4.23,3.7,0.54,5.64
25.618195056915283,4.29,3.73,0.3,5.69
25.62005090713501,4.27,3.9,-0.04,5.78
25.63450789451599,3.77,4.45,-0.56,5.85
25.636462926864624,3.54,4.68,-0.68,5.9
25.647634983062744,3.29,4.83,-0.81,5.89
25.64998483657837,2.92,4.75,-0.73,5.62
25.66394281387329,2.51,4.41,-0.74,5.12
25.66601586341858,1.92,3.83,-0.75,4.34
25.680481910705566,1.13,3.08,-0.75,3.36
25.682289838790894,0.31,2.29,-0.72,2.42
25.765649795532227,-0.46,1.84,-0.89,2.09
25.76732301712036,-1.39,1.38,-0.86,2.13
25.784519910812378,-1.91,1.49,-0.74,2.53
25.786289930343628,-2.33,1.38,-0.74,2.8
25.797570943832397,-2.8,0.64,-0.95,3.02
25.800128936767578,-3.23,-0.02,-1.14,3.42
25.81400489807129,-3.68,-0.8,-1.15,3.93
25.81584882736206,-4.23,-1.47,-0.99,4.58
25.830628871917725,-4.65,-1.79,-0.78,5.04
25.83270788192749,-4.99,-1.93,-0.64,5.38
25.915990829467773,-5.12,-2.12,-0.56,5.56
25.917380809783936,-4.98,-2.41,-0.54,5.55
25.934220790863037,-4.79,-2.88,-0.64,5.62
25.93600082397461,-4.49,-2.99,-0.74,5.44
25.947614908218384,-4.18,-2.96,-0.78,5.18
25.949350833892822,-3.92,-3.08,-0.91,5.06
25.96396493911743,-3.81,-3.42,-0.88,5.19
25.966135025024414,-3.5,-3.93,-0.46,5.28
25.980652809143066,-2.81,-4.05,-0.02,4.92
25.982743740081787,-1.04,-3.04,0.88,3.33
26.06626605987549,-0.08,-2.87,1.39,3.18
26.067893028259277,0.89,-2.82,1.77,3.44
26.0844988822937,1.61,-2.64,2.12,3.74
26.086532831192017,1.87,-2.15,2.29,3.65
26.09771990776062,1.9,-1.3,2.21,3.19
26.10013484954834,1.75,-0.76,2.09,2.82
26.11408805847168,1.65,-0.72,2.14,2.79
26.11616277694702,1.71,-0.7,2.27,2.92
26.13059377670288,1.84,-0.56,2.32,3.01
26.13263988494873,1.91,-0.22,2.11,2.85
26.2155818939209,1.93,0.04,1.87,2.68
26.217336893081665,2.12,0.79,1.67,2.81
26.23451280593872,1.92,1.2,1.6,2.77
26.236309051513672,1.87,1.63,1.53,2.91
26.24802589416504,1.94,2.0,1.6,3.21
26.250574827194214,2.17,2.56,1.55,3.69
26.264187812805176,2.59,3.28,1.45,4.42
26.266223907470703,3.0,3.93,1.24,5.09
26.281080722808838,3.31,4.47,0.97,5.64
26.283288955688477,3.45,4.88,0.7,6.01
26.367743968963623,3.59,5.03,0.4,6.19
26.369311809539795,3.64,4.99,-0.07,6.17
26.384405851364136,3.57,4.81,-0.51,6.01
26.386379718780518,3.36,4.63,-0.73,5.76
26.39761781692505,3.0,4.44,-0.94,5.44
26.39934492111206,1.61,3.84,-0.97,4.27
26.41402578353882,0.91,3.33,-1.12,3.62
26.41592788696289,-0.44,2.34,-1.28,2.7
26.43058681488037,-1.27,1.73,-1.13,2.42
26.432397842407227,-2.33,0.91,-1.16,2.75
26.514784812927246,-3.4,0.03,-1.07,3.56
26.51649785041809,-4.22,-0.76,-0.77,4.35
26.534587860107422,-4.84,-1.35,-0.5,5.04
26.53650188446045,-5.17,-1.91,-0.37,5.52
26.54764986038208,-5.22,-2.58,-0.6,5.85
26.55022096633911,-5.03,-3.46,-0.94,6.17
26.564085006713867,-4.84,-4.1,-1.09,6.43
26.566479921340942,-4.77,-4.25,-1.2,6.5
26.580646991729736,-4.86,-3.95,-1.27,6.39
26.58264970779419,-5.0,-3.4,-1.25,6.17
26.66565489768982,-4.93,-2.86,-1.18,5.82
26.667422771453857,-4.64,-2.53,-1.23,5.42
26.684576988220215,-4.2,-2.35,-1.35,4.99
26.686563968658447,-3.51,-2.37,-1.25,4.41
26.697701930999756,-2.92,-2.36,-1.14,3.92
26.70017385482788,-1.73,-2.61,-0.62,3.19
26.71416473388672,-1.07,-2.37,-0.04,2.6
26.7163348197937,-0.28,-1.74,0.26,1.78
26.7305588722229,0.5,-1.17,0.69,1.44
26.732611894607544,1.01,-0.96,1.0,1.71
26.816218852996826,1.35,-1.1,1.08,2.04
26.81779670715332,1.64,-1.55,1.0,2.46
26.83458685874939,2.09,-3.29,0.92,4.0
26.836591720581055,2.32,-3.9,1.17,4.68
26.847654819488525,2.3,-3.8,1.42,4.66
26.850361824035645,2.49,-3.54,1.68,4.64
26.864068031311035,2.44,-2.77,1.7,4.06
26.86592984199524,2.3,-1.65,1.69,3.29
26.880652904510498,2.17,-0.44,1.6,2.73
26.88276481628418,2.22,0.8,1.46,2.77
26.965301036834717,2.53,1.82,1.29,3.37
26.96703004837036,2.92,2.66,0.95,4.06
26.984532833099365,3.29,3.2,0.7,4.64
26.986398935317993,3.71,3.66,0.48,5.23
26.997724056243896,4.05,3.99,0.2,5.68
27.00005793571472,4.16,4.21,-0.08,5.91
27.01414680480957,4.17,4.46,-0.26,6.11
27.016304969787598,4.19,4.72,-0.56,6.33
27.0308358669281,4.17,4.91,-0.82,6.49
27.033023834228516,4.02,5.07,-1.0,6.54
27.11609172821045,3.75,5.08,-1.12,6.41
27.11772394180298,3.27,4.77,-1.23,5.91
27.134527921676636,2.71,4.39,-1.28,5.31
27.136374950408936,2.15,3.84,-1.35,4.6
27.147666931152344,1.51,3.24,-1.4,3.83
27.150238037109375,-0.36,1.73,-1.29,2.18
27.164207935333252,-0.38,1.75,-1.28,2.2
27.16594171524048,-1.41,1.09,-1.32,2.21
27.180686950683594,-2.26,0.38,-1.29,2.62
27.182816982269287,-4.03,-1.05,-1.63,4.47
27.267510890960693,-4.65,-1.3,-1.72,5.12
27.269418716430664,-5.39,-1.61,-1.43,5.8
27.28512191772461,-6.0,-1.73,-0.88,6.3
27.287149906158447,-6.45,-2.08,-0.33,6.78
27.297722816467285,-6.63,-2.64,-0.13,7.13
27.300178050994873,-6.59,-3.08,-0.35,7.28
27.314125061035156,-6.24,-3.02,-0.62,6.96
27.316182851791382,-5.65,-2.74,-0.77,6.32
27.330586910247803,-5.04,-2.44,-0.84,5.66
27.332526922225952,-4.31,-2.54,-0.81,5.06
27.416308879852295,-3.64,-2.89,-0.95,4.74
27.417995929718018,-2.94,-3.54,-0.81,4.67
27.43452501296997,-2.07,-3.81,-0.41,4.35
27.436519861221313,-1.29,-3.39,0.15,3.63
27.44774580001831,-0.61,-2.83,0.64,2.96
27.45058298110962,0.03,-2.74,1.18,2.98
27.46407985687256,0.56,-2.82,1.51,3.24
27.466290950775146,1.06,-3.09,1.78,3.72
27.480631828308105,1.33,-2.72,1.99,3.62
27.4826717376709,1.52,-2.07,2.02,3.26
27.56551504135132,1.53,-1.53,1.89,2.87
27.56723403930664,1.68,-0.86,1.8,2.6
27.584560871124268,1.95,-0.29,1.77,2.64
27.586405754089355,2.34,0.02,1.84,2.97
27.598515033721924,2.48,-0.02,1.74,3.02
27.601220846176147,2.7,0.4,1.6,3.16
27.614165782928467,2.69,0.78,1.6,3.22
27.616777896881104,2.59,1.28,1.55,3.27
27.630741834640503,2.55,1.79,1.56,3.48
27.633612871170044,2.77,2.39,1.62,4.0
27.647557735443115,2.97,2.98,1.59,4.49
27.733635902404785,3.29,3.5,1.4,5.0
27.735357761383057,3.5,3.85,1.12,5.32
27.751269817352295,3.69,4.16,0.76,5.61
27.753100872039795,3.75,4.34,0.57,5.76
27.764430046081543,3.69,4.38,0.35,5.73
27.766475915908813,3.53,4.52,0.14,5.73
27.78064203262329,3.16,4.53,-0.18,5.52
27.7826247215271,2.65,4.19,-0.52,4.98
27.7971830368042,1.91,3.91,-0.77,4.41
27.799232006072998,0.96,3.86,-0.77,4.05
27.882723808288574,0.16,4.06,-0.59,4.1
27.884307861328125,-1.17,3.62,-0.5,3.83
27.901291847229004,-2.37,2.9,-0.41,3.76
27.903114795684814,-3.26,2.28,-0.24,3.98
27.91438579559326,-3.88,1.32,-0.18,4.1
27.916586875915527,-4.14,-0.01,-0.3,4.15
27.930734872817993,-4.3,-1.15,-0.58,4.48
27.932767868041992,-4.24,-1.99,-0.67,4.73
27.947319984436035,-4.23,-2.68,-0.88,5.08
27.949371814727783,-4.13,-3.06,-1.17,5.27
28.03375005722046,-3.88,-3.36,-2.41,5.67
28.035490036010742,-4.12,-3.42,-2.84,6.06
28.05126190185547,-4.57,-3.21,-2.83,6.26
28.05313777923584,-4.96,-2.76,-2.58,6.23
28.06441879272461,-5.17,-2.08,-2.54,6.12
28.066728830337524,-4.38,-1.76,-2.51,5.34
28.08082890510559,-3.52,-1.85,-2.48,4.68
28.083297729492188,-2.26,-2.23,-2.16,3.84
28.097365856170654,-1.27,-2.54,-1.29,3.11
28.099814891815186,-0.5,-2.37,-0.39,2.45
28.182533740997314,0.32,-1.9,0.39,1.96
28.184051036834717,1.09,-1.44,1.14,2.13
28.2010760307312,1.71,-1.37,1.54,2.67
28.20290493965149,2.05,-1.73,1.59,3.11
28.214395999908447,2.23,-2.54,1.56,3.72
28.216266870498657,2.14,-3.41,1.52,4.3
28.230712890625,2.01,-4.16,1.62,4.89
28.23241376876831,1.86,-4.51,1.78,5.19
28.247346878051758,1.71,-4.38,2.0,5.1
28.249522924423218,1.6,-3.88,2.19,4.73
28.33278489112854,1.46,-3.07,2.13,4.01
28.334377765655518,1.4,-1.91,1.89,3.02
28.35231590270996,1.45,-0.69,1.61,2.27
28.354111909866333,1.82,0.42,1.25,2.24
28.36446475982666,2.3,1.31,0.97,2.81
28.367777824401855,2.87,2.16,0.8,3.68
28.381321907043457,3.86,3.42,0.52,5.18
28.38396406173706,4.17,3.88,0.22,5.7
28.397313833236694,4.34,4.37,0.03,6.15
28.399340867996216,4.44,4.81,-0.09,6.54
28.483186721801758,4.54,5.18,-0.24,6.89
28.484574794769287,4.54,5.37,-0.39,7.04
28.50135374069214,4.55,5.45,-0.55,7.12
28.503177881240845,4.38,5.29,-0.71,6.9
28.51442003250122,3.95,4.97,-0.87,6.4
28.516809940338135,3.38,4.58,-0.88,5.75
28.530773878097534,2.64,4.05,-0.89,4.91
28.532840728759766,1.81,3.56,-0.95,4.1
28.54738473892212,1.1,3.15,-0.96,3.47
28.549352884292603,0.38,2.62,-1.1,2.86
28.63258171081543,-0.24,1.89,-1.2,2.25
28.634198904037476,-1.14,1.04,-1.33,2.03
28.651137828826904,-2.0,0.09,-1.56,2.53
28.652885913848877,-2.93,-0.8,-1.55,3.4
28.664470911026,-3.91,-1.52,-1.5,4.45
28.666010856628418,-4.89,-2.03,-1.31,5.45
28.68077802658081,-5.75,-2.42,-1.1,6.33
28.682519912719727,-6.21,-2.93,-1.01,6.94
28.697743892669678,-6.53,-3.57,-1.23,7.54
28.699635982513428,-6.64,-4.28,-1.67,8.07
28.78388285636902,-6.53,-4.65,-1.93,8.24
28.785501956939697,-6.18,-4.18,-2.2,7.77
28.80128288269043,-5.78,-3.31,-2.48,7.1
28.803267002105713,-4.96,-1.58,-1.94,5.55
28.814488887786865,-4.56,-1.01,-1.38,4.87
28.816524982452393,-3.57,-1.26,-0.79,3.86
28.83082675933838,-2.6,-1.55,-0.36,3.04
28.83337092399597,-1.27,-1.57,0.28,2.03
28.847535848617554,-0.09,-1.43,0.9,1.69
28.849613904953003,0.99,-1.71,1.5,2.48
28.934850931167603,1.95,-2.36,1.97,3.64
28.93631386756897,2.73,-3.24,2.36,4.84
28.951308727264404,2.74,-3.18,2.34,4.8
28.953657865524292,2.57,-3.31,2.2,4.73
28.964451789855957,2.25,-3.06,2.28,4.42
28.96690273284912,1.71,-2.55,2.3,3.83
28.980827808380127,1.25,-2.02,2.33,3.32
28.982929706573486,0.97,-1.45,2.47,3.02
28.997365951538086,0.93,-0.71,2.57,2.82
28.999474048614502,0.82,-0.52,2.71,2.87
29.08440399169922,0.67,-0.33,2.68,2.78
29.086034774780273,0.88,0.2,2.57,2.72
29.10138487815857,1.25,0.96,2.24,2.73
29.103320837020874,2.04,1.96,1.85,3.38
29.114541053771973,2.66,2.89,1.47,4.19
29.117013931274414,3.15,3.61,1.26,4.95
29.130892753601074,3.59,4.12,0.97,5.55
29.133112907409668,3.85,4.62,0.69,6.05
29.14741587638855,4.03,5.02,0.38,6.44
29.149466037750244,4.03,5.19,0.07,6.57
29.234210968017578,3.9,5.19,-0.27,6.49
29.235743045806885,3.35,4.61,-0.88,5.76
29.25130271911621,3.0,4.11,-1.26,5.24
29.2531578540802,2.79,3.81,-1.47,4.94
29.26449203491211,2.54,3.47,-1.61,4.59
29.266820907592773,1.78,2.76,-1.9,3.79
29.280804872512817,0.95,2.13,-1.9,3.0
29.283156871795654,0.09,1.61,-1.89,2.48
29.297368049621582,-0.89,0.92,-1.85,2.24
29.299471855163574,-1.6,0.39,-1.75,2.4
29.384475708007812,-2.52,-0.29,-1.66,3.03
29.386083841323853,-3.2,-0.94,-1.37,3.6
29.40134286880493,-3.87,-1.58,-1.13,4.33
29.403199911117554,-4.35,-2.53,-1.1,5.15
29.414429903030396,-4.79,-3.51,-1.17,6.05
29.417297840118408,-5.13,-4.24,-1.24,6.76
29.430908918380737,-5.55,-4.51,-1.21,7.25
29.433153867721558,-5.91,-4.34,-1.0,7.4
29.447371006011963,-5.95,-3.73,-0.81,7.06
29.449413776397705,-5.81,-3.17,-0.88,6.67
29.534231901168823,-5.37,-2.73,-1.14,6.13
29.535822868347168,-4.79,-2.64,-1.27,5.61
29.551373958587646,-4.13,-2.94,-0.96,5.15
29.55311679840088,-3.64,-3.29,-0.46,4.92
29.564466953277588,-3.16,-3.34,0.16,4.6
29.566987991333008,-2.42,-3.21,0.69,4.07
29.58087396621704,-1.59,-2.92,1.06,3.48
29.583062887191772,-0.32,-2.96,1.32,3.25
29.59757900238037,0.26,-3.42,1.4,3.7
29.59928798675537,0.83,-3.92,1.55,4.29
29.682775020599365,1.28,-4.42,1.68,4.89
29.684172868728638,1.78,-4.59,2.04,5.32
29.70120882987976,2.32,-4.48,2.25,5.52
29.702932834625244,2.88,-3.97,2.24,5.39
29.71444797515869,3.5,-2.84,2.03,4.94
29.716346740722656,4.07,-1.01,1.49,4.45
29.730827808380127,4.46,0.31,1.2,4.62
29.732651710510254,4.7,1.49,1.11,5.05
29.74736189842224,4.7,2.53,0.97,5.42
29.749427795410156,4.98,3.45,0.85,6.11
29.834688901901245,5.07,3.98,0.71,6.48
29.836565017700195,5.1,4.5,0.51,6.82
29.851343870162964,5.27,4.89,0.2,7.19
29.853283882141113,5.23,5.18,-0.05,7.36
29.86453104019165,5.22,5.43,-0.28,7.53
29.867068767547607,5.16,5.53,-0.53,7.58
29.880924940109253,4.83,5.41,-0.83,7.29
29.882987022399902,4.45,5.32,-1.01,7.0
29.897441864013672,3.96,5.21,-1.09,6.63
29.899333953857422,3.44,4.83,-1.25,6.06
29.98456382751465,3.01,4.32,-1.46,5.46
29.986357927322388,2.44,3.59,-1.49,4.58
30.001405715942383,1.43,2.89,-1.56,3.58
30.00339388847351,-0.27,1.2,-1.61,2.02
30.014554023742676,-1.33,0.26,-1.86,2.3
30.0169620513916,-2.5,-0.58,-2.1,3.31
30.030879020690918,-3.76,-1.06,-1.9,4.34
30.033097743988037,-4.64,-1.31,-1.61,5.08
30.04740285873413,-5.36,-1.43,-1.32,5.7
30.049332857131958,-5.61,-1.65,-1.13,5.95
30.134207725524902,-5.4,-1.93,-1.13,5.84
30.13594388961792,-5.24,-2.54,-1.21,5.94
30.151487827301025,-5.02,-3.14,-1.48,6.1
30.153403759002686,-4.72,-3.58,-1.76,6.18
30.16448974609375,-4.59,-3.66,-1.99,6.19
30.167430877685547,-4.33,-3.38,-2.21,5.92
30.180842876434326,-4.22,-2.82,-2.13,5.5
30.182783842086792,-4.21,-2.26,-1.93,5.15
30.197339057922363,-4.01,-1.88,-1.74,4.75
30.19923496246338,-3.56,-2.06,-1.3,4.31
30.283812999725342,-2.73,-2.56,-0.79,3.82
30.285502910614014,-1.7,-2.66,-0.34,3.17
30.30137586593628,-0.82,-2.38,0.33,2.53
30.303250789642334,0.12,-2.29,0.98,2.49
30.31449604034424,0.95,-2.4,1.6,3.03
30.31707191467285,1.74,-2.87,2.17,3.99
30.330912828445435,2.18,-2.67,2.61,4.32
30.33304190635681,2.13,-2.09,2.62,3.97
30.34739089012146,1.9,-1.85,2.52,3.65
30.34946584701538,1.57,-1.55,2.52,3.34
30.434226036071777,0.97,-1.57,2.77,3.32
30.43588089942932,0.84,-1.4,2.8,3.24
30.45157790184021,0.72,-1.03,2.7,2.97
30.453503847122192,0.8,-0.52,2.42,2.6
30.46454381942749,0.96,0.01,2.08,2.29
30.467010021209717,1.15,0.65,1.84,2.26
30.48095178604126,1.53,1.42,1.69,2.68
30.48309087753296,1.86,2.2,1.43,3.21
30.49738073348999,2.3,2.97,1.2,3.94
30.499520778656006,2.68,3.64,0.96,4.62
30.583375930786133,3.03,4.06,0.59,5.1
30.585019826889038,3.25,4.44,0.42,5.51
30.601152896881104,3.33,4.94,0.17,5.95
30.60288906097412,3.42,5.26,-0.03,6.27
30.614537715911865,3.44,5.48,-0.28,6.47
30.61644697189331,3.44,5.52,-0.62,6.53
30.630769729614258,3.47,5.3,-0.93,6.4
30.632396936416626,3.15,4.87,-1.13,5.9
30.647419929504395,2.67,4.55,-1.14,5.39
30.649221897125244,2.05,4.25,-1.08,4.84
30.73052978515625,1.27,3.98,-1.09,4.31
30.732171058654785,0.23,3.25,-1.04,3.42
30.751230716705322,-0.67,2.47,-0.96,2.73
30.753007888793945,-1.57,1.22,-1.17,2.3
30.764548778533936,-2.45,-0.01,-1.15,2.7
30.766273021697998,-3.21,-1.27,-0.91,3.57
30.78093671798706,-3.76,-2.27,-0.59,4.43
30.782697916030884,-5.36,-3.82,0.0,6.58
30.797446727752686,-5.97,-4.21,-0.01,7.3
30.799205780029297,-6.18,-4.4,-0.36,7.59
30.882659912109375,-6.42,-4.45,-0.88,7.86
30.884067058563232,-6.49,-4.48,-1.34,7.99
30.90156602859497,-6.34,-4.5,-1.68,7.95
30.903283834457397,-6.11,-4.58,-1.91,7.87
30.914490938186646,-5.69,-4.63,-2.01,7.6
30.916396856307983,-5.14,-4.68,-1.7,7.15
30.930837869644165,-4.48,-4.63,-0.97,6.51
30.932504892349243,-3.71,-4.05,-0.34,5.5
30.947775840759277,-2.5,-3.19,0.28,4.06
30.949983835220337,-1.35,-2.43,0.62,2.84
31.03455400466919,-0.18,-1.96,0.73,2.09
31.036126852035522,1.0,-1.86,0.69,2.22
31.051381826400757,2.02,-2.0,0.69,2.92
31.053382873535156,2.59,-2.41,0.67,3.6
31.064947843551636,3.03,-2.86,0.5,4.19
31.06711483001709,3.16,-3.03,0.42,4.39
31.080918788909912,3.23,-2.7,0.52,4.24
31.08266592025757,3.71,-1.64,0.86,4.14
31.09742498397827,3.64,-0.72,0.93,3.82
31.099137783050537,3.75,0.47,0.99,3.9
31.182153940200806,3.73,1.56,1.13,4.19
31.183645725250244,3.79,2.42,1.18,4.64
31.2012939453125,3.94,3.08,1.19,5.14
31.20311403274536,4.31,4.06,0.93,5.99
31.21452784538269,4.65,4.51,0.76,6.52
31.21619987487793,4.66,4.71,0.57,6.65
31.230883836746216,4.74,5.0,0.34,6.89
31.23259973526001,4.75,5.24,0.14,7.07
31.247468948364258,4.71,5.36,-0.05,7.13
31.249263763427734,4.57,5.37,-0.14,7.05
31.332579851150513,4.23,5.27,-0.13,6.75
31.334229946136475,3.86,5.03,-0.16,6.34
31.35217571258545,3.29,4.46,-0.1,5.54
31.35431671142578,2.57,3.67,-0.17,4.48
31.36522102355957,1.69,3.05,-0.3,3.49
31.367933750152588,0.83,2.5,-0.37,2.66
31.381898880004883,-0.03,2.04,-0.42,2.08
31.383657932281494,-0.83,1.49,-0.64,1.82
31.397411823272705,-1.61,0.82,-0.97,2.05
31.39917278289795,-2.28,0.05,-1.29,2.62
31.48216199874878,-3.1,-0.88,-1.47,3.54
31.483832836151123,-3.98,-1.54,-1.49,4.52
31.50216794013977,-4.64,-1.87,-1.48,5.21
31.504214763641357,-5.07,-2.16,-1.42,5.69
31.515013933181763,-5.22,-2.4,-1.43,5.92
31.51716184616089,-5.8,-3.04,-1.64,6.75
31.531271934509277,-5.96,-3.33,-2.01,7.11
31.533262729644775,-6.07,-3.55,-2.46,7.44
31.54845094680786,-6.04,-3.53,-2.9,7.57
31.550780773162842,-5.92,-3.2,-3.07,7.39
31.63726782798767,-5.83,-2.53,-2.55,6.84
31.638850927352905,-5.16,-2.73,-1.87,6.12
31.652185916900635,-3.94,-3.57,-1.12,5.43
31.654534816741943,-2.56,-4.32,-0.54,5.05
31.664981842041016,-1.42,-4.31,0.07,4.53
31.666959762573242,-0.41,-4.24,0.72,4.32
31.681464910507202,0.49,-4.02,1.34,4.26
31.683167934417725,1.42,-4.06,1.89,4.69
31.697425842285156,2.12,-4.17,2.43,5.27
31.699219942092896,1.85,-3.37,2.65,4.66
31.78274393081665,1.67,-2.84,2.65,4.22
31.784504890441895,1.29,-2.27,2.57,3.66
31.80221700668335,0.97,-2.15,2.78,3.64
31.80437183380127,0.79,-2.04,3.06,3.76
31.814992904663086,0.75,-1.84,3.24,3.8
31.816717863082886,0.95,-1.41,3.25,3.66
31.831296920776367,1.23,-0.58,2.98,3.27
31.83329200744629,1.53,0.42,2.55,3.0
31.847764015197754,1.8,1.42,2.23,3.19
31.849608898162842,2.11,2.29,1.96,3.67
31.933530807495117,2.47,3.09,1.77,4.33
31.935175895690918,2.75,3.64,1.5,4.8
31.952157974243164,2.91,4.04,1.04,5.08
31.95439577102661,3.46,4.22,0.76,5.5
31.965057849884033,3.49,4.55,0.4,5.74
31.96714496612549,3.7,4.78,-0.05,6.04
31.981647968292236,3.76,5.14,-0.32,6.37
31.983754873275757,3.94,5.78,-0.48,7.01
31.997875928878784,3.82,5.76,-0.68,6.94
31.999884843826294,3.6,5.51,-0.79,6.62
32.08380079269409,3.14,4.9,-0.96,5.89
32.08547878265381,2.5,4.19,-1.22,5.02
32.10225987434387,1.84,3.69,-1.36,4.34
32.104248046875,0.86,3.0,-1.56,3.48
32.11462593078613,0.03,2.6,-1.59,3.04
32.116281032562256,-0.74,2.35,-1.59,2.93
32.1309700012207,-1.55,1.85,-1.36,2.77
32.13269805908203,-2.4,0.87,-1.19,2.81
32.14751195907593,-3.31,-0.29,-1.21,3.53
32.149510860443115,-4.24,-1.47,-1.12,4.62
32.23672890663147,-4.93,-2.42,-1.03,5.58
32.23818874359131,-5.65,-3.14,-1.01,6.54
32.251431941986084,-6.27,-3.53,-1.02,7.26
32.25343894958496,-6.62,-3.65,-1.03,7.62
32.26463794708252,-6.67,-3.52,-1.25,7.64
32.26641082763672,-6.47,-3.21,-1.49,7.37
32.28117084503174,-5.96,-2.96,-1.71,6.87
32.28312587738037,-5.4,-2.64,-1.9,6.3
32.29752588272095,-4.59,-2.41,-1.96,5.54
32.29930400848389,-3.33,-2.45,-1.91,4.55
32.38441491127014,-2.2,-2.6,-1.6,3.76
32.3859179019928,-1.46,-2.72,-0.93,3.22
32.40138292312622,-0.82,-2.52,-0.16,2.65
32.4035120010376,0.28,-1.65,1.24,2.08
32.4146249294281,0.84,-1.68,1.68,2.51
32.416471004486084,1.27,-2.13,1.79,3.05
32.43105697631836,1.62,-2.86,1.74,3.71
32.432976722717285,1.9,-3.79,1.65,4.54
32.44763374328613,2.18,-4.65,1.77,5.43
32.44939684867859,2.44,-5.13,2.08,6.04
32.53372383117676,2.67,-5.43,2.41,6.51
32.53551888465881,2.55,-4.51,2.39,5.7
32.55136489868164,2.58,-3.3,2.13,4.69
32.553311824798584,2.55,-1.78,1.78,3.58
32.56454586982727,2.65,0.0,1.26,2.93
32.566030979156494,2.73,1.3,0.95,3.16
32.58095598220825,2.88,2.35,0.81,3.8
32.58280086517334,3.1,3.2,0.74,4.51
32.597492933273315,3.59,3.68,0.65,5.18
32.599140882492065,3.77,4.07,0.47,5.56
32.68165993690491,4.01,4.51,0.31,6.04
32.68337893486023,4.1,4.85,0.15,6.35
32.70163583755493,4.15,5.12,-0.07,6.59
32.70351505279541,4.11,5.33,-0.21,6.73
32.714624881744385,4.08,5.46,-0.31,6.82
32.71635985374451,3.96,5.39,-0.39,6.69
32.73092079162598,3.75,5.2,-0.41,6.42
32.73277688026428,3.43,4.9,-0.44,5.99
32.74772596359253,2.97,4.6,-0.45,5.49
32.749435901641846,2.44,4.11,-0.47,4.8
32.831461906433105,1.06,2.74,-0.96,3.09
32.83333492279053,0.3,1.95,-1.12,2.26
32.85216474533081,-0.45,1.35,-1.16,1.83
32.85445785522461,-1.24,0.86,-1.22,1.94
32.86518096923828,-2.17,0.22,-1.24,2.5
32.86756896972656,-3.48,-0.37,-1.42,3.77
32.88150191307068,-4.22,-1.04,-1.53,4.6
32.88355588912964,-4.95,-1.74,-1.73,5.52
32.897424936294556,-5.72,-2.65,-1.73,6.53
32.89900994300842,-6.27,-3.19,-1.62,7.21
32.983197927474976,-6.6,-3.51,-1.67,7.65
32.984869956970215,-6.75,-3.6,-1.7,7.83
33.00225591659546,-6.42,-3.37,-1.89,7.49
33.00424098968506,-5.8,-3.1,-2.31,6.97
33.01499390602112,-5.36,-2.78,-2.72,6.62
33.0168399810791,-5.06,-2.54,-2.73,6.28
33.031373023986816,-4.68,-2.64,-2.45,5.9
33.03331899642944,-3.66,-3.16,-1.86,5.18
33.04751682281494,-2.46,-3.61,-1.45,4.6
33.049306869506836,-1.41,-3.65,-0.65,3.96
33.133354902267456,-0.64,-3.66,0.32,3.72
33.13494682312012,0.12,-3.83,1.33,4.05
33.152267932891846,0.82,-3.95,2.05,4.52
33.154358863830566,1.19,-3.94,2.54,4.83
33.16497087478638,0.95,-3.38,2.63,4.38
33.166738986968994,0.38,-2.59,2.49,3.61
33.18145704269409,0.04,-2.5,2.98,3.88
33.18354892730713,-0.25,-2.26,3.55,4.21
33.19753980636597,0.19,-1.73,3.35,3.77
33.19931697845459,0.65,-0.8,2.8,2.98
33.282315731048584,1.32,0.27,2.19,2.57
33.28410196304321,1.9,1.16,1.83,2.88
33.302289962768555,2.17,1.99,1.63,3.36
33.30433487892151,2.67,2.81,1.64,4.2
33.31505298614502,2.97,3.48,1.73,4.89
33.31703591346741,3.37,4.27,1.67,5.69
33.33174705505371,3.68,4.9,1.44,6.29
33.33361577987671,3.86,5.46,1.25,6.8
33.34791588783264,3.89,5.91,1.17,7.17
33.34992074966431,4.02,6.24,0.93,7.48
33.43331480026245,4.2,6.32,0.68,7.61
33.43496489524841,4.38,6.03,0.34,7.46
33.452292919158936,4.47,5.49,-0.02,7.07
33.454339027404785,4.34,4.9,-0.3,6.55
33.46512174606323,4.27,4.39,-0.38,6.13
33.467323780059814,3.68,3.92,-0.48,5.39
33.48144292831421,2.68,3.44,-0.48,4.38
33.483372926712036,1.65,2.68,-0.32,3.16
33.49753379821777,0.36,1.97,-0.29,2.02
33.499409914016724,-0.92,1.02,-0.11,1.37
33.582072734832764,-2.26,0.15,-0.39,2.29
33.58372783660889,-3.03,-0.91,-0.6,3.22
33.60133075714111,-3.62,-1.69,-0.82,4.07
33.603381872177124,-4.42,-2.99,-0.92,5.41
33.61480093002319,-4.6,-3.74,-0.94,6.0
33.616952896118164,-4.57,-4.28,-1.33,6.4
33.63097286224365,-4.55,-4.27,-1.81,6.49
33.63285183906555,-4.62,-3.83,-2.25,6.4
33.64754295349121,-4.8,-3.08,-2.57,6.25
33.64929676055908,-5.14,-2.05,-2.8,6.2
33.73295187950134,-4.83,-1.54,-2.87,5.82
33.73440980911255,-4.37,-0.82,-3.24,5.5
33.75159192085266,-3.65,-0.49,-3.53,5.1
33.75365686416626,-2.59,-1.2,-3.07,4.19
33.764633893966675,-2.23,-2.04,-2.0,3.62
33.766435861587524,-1.37,-2.47,-0.78,2.93
33.78103303909302,-0.9,-2.48,0.05,2.63
33.78299689292908,-0.44,-2.36,0.67,2.49
33.797414779663086,0.09,-2.36,1.01,2.56
33.79902386665344,0.35,-2.66,1.31,2.98
33.88253974914551,0.47,-3.5,1.36,3.78
33.88416790962219,0.77,-4.53,1.48,4.82
33.90158176422119,1.0,-5.4,1.53,5.7
33.903626918792725,1.09,-6.12,1.7,6.44
33.915024757385254,1.08,-6.14,2.03,6.55
33.916786909103394,1.23,-5.65,2.36,6.24
33.931570053100586,1.37,-4.64,2.52,5.45
33.93328094482422,1.74,-2.89,2.31,4.08
33.94757890701294,2.06,-0.92,1.99,3.0
33.94933271408081,2.44,0.82,1.72,3.09
34.034156799316406,3.38,3.56,1.27,5.07
34.03603982925415,3.81,4.37,1.08,5.89
34.05157279968262,4.09,5.06,0.94,6.57
34.053475856781006,4.38,5.43,0.83,7.02
34.06460475921631,4.6,5.54,0.64,7.22
34.0663857460022,4.64,5.62,0.43,7.3
34.08106589317322,4.67,5.72,0.14,7.38
34.083003997802734,4.62,5.81,-0.08,7.42
34.09762382507324,4.38,5.9,-0.2,7.35
34.0994668006897,4.16,5.74,-0.29,7.09
34.183281898498535,3.7,5.57,-0.38,6.69
34.1848349571228,3.25,5.24,-0.55,6.19
34.20147085189819,2.69,4.58,-0.54,5.33
34.20329999923706,2.06,3.72,-0.54,4.28
34.214547872543335,1.2,2.49,-0.62,2.83
34.21643686294556,0.25,1.35,-0.77,1.57
34.23102378845215,-0.66,0.43,-0.84,1.15
34.232961893081665,-1.88,0.15,-1.03,2.14
34.247562885284424,-2.64,-0.26,-1.23,2.92
34.24936580657959,-3.21,-0.4,-1.34,3.5
34.264288902282715,-3.72,-0.47,-1.27,3.95
34.34764003753662,-3.96,-0.41,-1.23,4.16
34.349108934402466,-4.05,-0.64,-1.46,4.35
34.36807680130005,-4.18,-1.14,-1.65,4.63
34.36988401412964,-4.36,-1.61,-1.84,4.99
34.38149285316467,-4.47,-2.37,-2.24,5.53
34.3835129737854,-4.27,-3.22,-2.77,6.02
34.39767503738403,-4.05,-3.35,-3.01,6.05
34.39928197860718,-3.9,-3.31,-2.97,5.91
34.414270877838135,-3.97,-3.13,-2.69,5.72
34.41603493690491,-3.91,-3.36,-2.04,5.54
34.49942994117737,-3.52,-4.16,-1.44,5.63
34.500874042510986,-2.17,-4.27,-0.89,4.87
34.518038749694824,-1.25,-4.62,-0.46,4.8
34.51996088027954,-0.32,-4.69,0.23,4.7
34.531521797180176,0.31,-4.54,1.02,4.66
34.53332996368408,0.59,-4.42,1.7,4.77
34.54762601852417,0.78,-4.24,2.05,4.77
34.5491988658905,0.81,-3.97,2.24,4.62
34.56412696838379,0.65,-3.64,2.24,4.32
34.56578493118286,0.58,-3.58,2.55,4.43
34.648435831069946,0.61,-3.45,2.86,4.52
34.64991593360901,0.75,-3.06,2.98,4.33
34.66809582710266,0.87,-2.49,2.9,3.92
34.66995692253113,0.96,-1.8,2.76,3.43
34.68137788772583,0.99,-0.99,2.59,2.94
34.683125019073486,1.13,-0.1,2.46,2.7
34.69764471054077,1.37,0.81,2.43,2.9
34.699265003204346,1.93,1.72,2.27,3.44
34.71425485610962,2.32,2.78,2.03,4.15
34.716022968292236,2.77,3.76,1.89,5.03
34.799001932144165,3.15,4.32,1.68,5.6
34.800654888153076,3.55,4.88,1.37,6.18
34.818219900131226,3.44,5.24,1.0,6.34
34.82034087181091,3.23,5.3,0.79,6.25
34.83165884017944,2.93,5.23,0.62,6.02
34.83330488204956,2.8,5.19,0.36,5.9
34.84770393371582,2.78,5.22,-0.01,5.91
34.84944677352905,2.71,5.05,-0.46,5.74
34.86421775817871,2.83,4.77,-1.0,5.63
34.86597394943237,2.59,4.14,-1.62,5.14
34.94748306274414,2.1,3.45,-2.09,4.54
34.9490647315979,1.48,2.95,-2.26,4.0
34.968148708343506,0.66,2.62,-2.17,3.46
34.969947814941406,-0.24,2.21,-1.84,2.88
34.981435775756836,-1.0,1.3,-1.32,2.1
34.98302984237671,-2.01,0.31,-1.33,2.43
34.99766182899475,-2.74,-1.03,-1.36,3.22
34.99939584732056,-3.56,-2.48,-1.42,4.56
35.01415991783142,-4.41,-3.59,-1.42,5.86
35.0159478187561,-5.19,-4.41,-1.37,6.94
35.09836483001709,-5.9,-4.76,-1.38,7.7
35.09987497329712,-6.5,-4.64,-1.35,8.09
35.117997884750366,-6.79,-4.0,-1.31,7.98
35.11983299255371,-6.5,-3.26,-1.23,7.37
35.13137483596802,-6.19,-2.77,-1.44,6.93
35.133097887039185,-5.6,-2.68,-1.83,6.47
35.14771389961243,-4.74,-2.83,-2.07,5.89
35.14946699142456,-3.92,-3.21,-1.9,5.41
35.16422891616821,-2.7,-3.49,-0.65,4.46
35.166011810302734,-2.1,-2.91,0.05,3.58
35.2486138343811,-1.38,-2.3,0.48,2.72
35.25026273727417,-0.62,-1.87,0.83,2.13
35.267969846725464,-0.01,-1.83,1.09,2.13
35.269646883010864,0.57,-2.03,1.22,2.43
35.28166484832764,1.09,-2.42,1.31,2.95
35.28386878967285,1.57,-2.76,1.4,3.47
35.29763889312744,2.04,-2.99,1.46,3.9
35.299301862716675,2.59,-2.96,1.58,4.23
35.31425476074219,3.07,-2.62,1.68,4.37
35.31603693962097,3.49,-1.96,1.53,4.28
35.39789295196533,3.84,-0.7,1.23,4.09
35.39927577972412,3.92,0.48,0.91,4.05
35.418142795562744,3.98,1.62,0.75,4.36
35.420002937316895,4.06,2.5,0.82,4.83
35.431400775909424,4.19,3.14,0.93,5.31
35.43323993682861,4.36,3.65,0.9,5.75
35.447721004486084,4.53,4.02,0.82,6.11
35.44955396652222,4.67,4.27,0.64,6.36
35.464298725128174,4.87,4.42,0.36,6.58
35.46612071990967,4.99,4.46,0.18,6.69
35.54817295074463,5.05,4.46,-0.02,6.73
35.54960083961487,4.83,4.56,-0.15,6.64
35.56808686256409,4.47,4.57,-0.43,6.4
35.57002305984497,3.98,4.45,-0.45,5.98
35.581356048583984,3.46,4.02,-0.5,5.32
35.58316493034363,1.9,2.93,-0.66,3.55
35.597697734832764,0.91,2.48,-0.71,2.73
35.599464893341064,-0.15,1.94,-0.68,2.06
35.61461687088013,-1.0,1.39,-0.72,1.85
35.61661887168884,-1.74,0.9,-0.74,2.09
35.70048379898071,-2.2,0.66,-0.78,2.42
35.7022180557251,-2.68,0.58,-0.75,2.84
35.71911287307739,-3.91,-0.2,-1.05,4.05
35.721298933029175,-4.37,-0.7,-1.11,4.56
35.73179292678833,-5.29,-1.2,-1.36,5.59
35.733412742614746,-5.87,-1.6,-1.45,6.25
35.747729778289795,-6.26,-1.98,-1.59,6.75
35.74942398071289,-6.21,-2.1,-1.68,6.76
35.76429486274719,-6.05,-2.15,-1.73,6.64
35.76612091064453,-5.63,-2.2,-1.87,6.32
35.84871006011963,-5.13,-2.11,-2.12,5.93
35.85017776489258,-4.68,-1.93,-1.97,5.43
35.86805987358093,-4.43,-2.02,-1.63,5.13
35.87011194229126,-3.79,-2.86,-1.29,4.92
35.8813910484314,-3.13,-3.97,-0.75,5.11
35.88314485549927,-2.18,-4.65,-0.01,5.13
35.89780592918396,-1.26,-4.69,0.87,4.93
35.89954590797424,-0.1,-4.65,1.46,4.87
35.91423988342285,1.29,-4.72,1.99,5.28
35.91609287261963,2.47,-4.93,2.49,6.05
35.998246908187866,3.06,-3.76,2.48,5.44
35.999945878982544,2.7,-2.43,2.18,4.23
36.018919944763184,1.61,-1.97,2.57,3.61
36.02096891403198,1.29,-2.26,2.8,3.82
36.03184270858765,1.03,-2.36,2.83,3.82
36.033676862716675,1.1,-1.93,2.76,3.54
36.04763984680176,1.02,-1.18,2.52,2.96
36.04930305480957,0.96,-0.09,2.1,2.31
36.06422805786133,1.04,1.04,1.8,2.32
36.066328048706055,1.36,2.03,1.52,2.87
36.14903497695923,1.79,2.87,1.4,3.66
36.15094995498657,2.21,3.65,1.31,4.46
36.168489933013916,2.77,4.28,1.24,5.24
36.17033672332764,3.24,4.74,1.08,5.84
36.181556940078735,3.66,5.15,0.83,6.37
36.183302879333496,3.99,5.54,0.55,6.84
36.19771385192871,4.15,5.76,0.28,7.1
36.19947791099548,4.15,5.87,-0.06,7.18
36.214234828948975,4.08,5.75,-0.45,7.06
36.216054916381836,3.81,5.34,-0.84,6.61
36.29818105697632,3.57,4.78,-1.0,6.04
36.29975700378418,2.99,4.44,-1.3,5.5
36.31809186935425,1.98,3.91,-1.48,4.62
36.32011699676514,1.32,3.39,-1.29,3.85
36.331321716308594,0.31,2.71,-1.44,3.08
36.33283805847168,-0.8,1.59,-1.55,2.36
36.347784996032715,-1.49,0.36,-1.08,1.87
36.34955286979675,-2.14,-1.14,-0.88,2.57
36.36431694030762,-4.35,-2.04,-0.78,4.86
36.36625790596008,-4.83,-2.36,-0.61,5.41
36.44988393783569,-5.06,-2.61,-0.45,5.71
36.45147180557251,-5.1,-2.98,-0.41,5.92
36.46906089782715,-5.09,-3.2,-0.68,6.05
36.47122001647949,-4.78,-2.96,-1.08,5.72
36.48179793357849,-4.66,-2.42,-1.34,5.41
36.483819007873535,-4.26,-2.43,-1.4,5.1
36.4977240562439,-4.13,-2.12,-1.58,4.9
36.49948978424072,-3.74,-2.09,-1.58,4.56
36.51428699493408,-3.31,-2.23,-1.43,4.23
36.516160011291504,-2.57,-2.22,-1.22,3.6
36.5980167388916,-1.87,-2.38,-0.91,3.16
36.599562883377075,-1.32,-2.7,-0.27,3.01
36.61923599243164,-0.89,-2.83,0.41,2.99
36.62128973007202,-0.47,-2.82,1.03,3.03
36.63165783882141,-0.11,-2.82,1.45,3.17
36.63332271575928,0.18,-2.93,1.67,3.37
36.647778034210205,0.43,-3.32,1.7,3.75
36.64943194389343,0.77,-4.13,1.69,4.52
36.664315938949585,0.88,-4.96,1.74,5.32
36.66622304916382,0.93,-5.39,1.72,5.73
36.74832773208618,1.01,-5.55,1.81,5.92
36.749812841415405,0.9,-5.3,1.95,5.71
36.7680549621582,0.86,-4.18,1.97,4.7
36.77010202407837,1.25,-2.11,1.73,3.0
36.78157591819763,1.61,-0.24,1.59,2.27
36.78366804122925,2.47,2.33,1.45,3.69
36.797893047332764,2.9,3.27,1.21,4.53
36.799870014190674,3.36,3.75,0.97,5.12
36.814358711242676,3.66,4.15,0.77,5.58
36.8161358833313,3.81,4.45,0.5,5.87
36.897822856903076,3.97,4.67,0.3,6.13
36.89937877655029,4.09,4.8,0.16,6.3
36.918155908584595,4.14,4.78,-0.04,6.32
36.92007088661194,3.96,4.9,-0.23,6.3
36.93139696121216,3.76,5.08,-0.4,6.33
36.933191776275635,3.52,5.1,-0.42,6.21
36.94778490066528,3.39,4.9,-0.4,5.97
36.949678897857666,3.14,4.39,-0.42,5.41
36.96436595916748,2.84,3.68,-0.56,4.68
36.966179847717285,2.32,2.86,-0.71,3.75
37.04819393157959,1.75,2.08,-0.75,2.81
37.04981279373169,1.17,1.42,-0.81,2.01
37.06823778152466,0.48,0.81,-1.03,1.39
37.0700249671936,-0.55,0.11,-1.1,1.23
37.08180475234985,-1.18,-0.36,-0.97,1.56
37.08387088775635,-2.0,-0.65,-0.94,2.3
37.09809589385986,-3.02,-0.86,-1.08,3.32
37.10008096694946,-3.68,-0.99,-0.95,3.92
37.114845752716064,-4.25,-0.91,-1.07,4.47
37.11681795120239,-4.83,-0.89,-1.34,5.09
37.20361590385437,-5.18,-0.86,-1.79,5.54
37.20529389381409,-5.27,-0.99,-2.49,5.91
37.218360900878906,-5.1,-1.87,-4.82,7.26
37.22032403945923,-5.14,-1.65,-5.66,7.82
37.23141384124756,-5.84,-1.04,-5.39,8.01
37.23308992385864,-5.88,-1.85,-3.25,6.96
37.24777173995972,-6.63,-1.16,-1.78,6.96
37.249313831329346,-5.8,-1.79,-1.21,6.18
37.26419973373413,-4.57,-2.21,-0.8,5.13
37.265941858291626,-3.11,-2.75,-0.23,4.15
37.34880876541138,-1.9,-3.25,0.55,3.8
37.35026502609253,-0.9,-3.69,1.42,4.05
37.36823391914368,-0.32,-3.75,1.97,4.24
37.36991882324219,0.39,-4.01,2.36,4.66
37.38146185874939,0.68,-3.74,2.71,4.66
37.38307571411133,0.73,-3.17,3.02,4.43
37.397735834121704,0.79,-2.49,3.13,4.07
37.39952898025513,0.97,-1.89,3.09,3.74
37.41432476043701,1.24,-1.5,3.13,3.68
37.41610383987427,1.57,-1.2,3.22,3.77
37.497718811035156,1.98,-0.88,3.27,3.92
37.49923491477966,2.44,-0.47,3.2,4.05
37.51829385757446,2.87,0.09,2.98,4.13
37.52017283439636,3.32,0.7,2.69,4.32
37.53157186508179,3.59,1.29,2.43,4.52
37.53328990936279,3.8,2.05,2.12,4.81
37.54795289039612,3.95,2.61,2.08,5.17
37.54971790313721,3.93,3.11,1.89,5.35
37.56431794166565,3.85,4.25,1.49,5.92
37.56600570678711,3.9,4.61,1.22,6.16
37.64876079559326,3.81,4.81,1.03,6.22
37.65026092529297,3.68,4.89,0.86,6.18
37.668302059173584,3.32,4.89,0.58,5.93
37.67001390457153,2.98,4.83,0.26,5.68
37.68153190612793,2.51,4.59,-0.07,5.23
37.6832480430603,1.82,4.15,-0.34,4.54
37.697988986968994,1.1,3.78,-0.44,3.96
37.69974899291992,0.38,3.56,-0.42,3.6
37.71440505981445,-0.43,3.23,-0.58,3.3
37.71643090248108,-1.36,2.58,-0.82,3.02
37.79936695098877,-2.37,1.48,-1.06,2.98
37.800843715667725,-3.08,0.88,-1.09,3.38
37.818331718444824,-3.9,0.18,-1.21,4.08
37.820096015930176,-4.66,-0.2,-1.36,4.85
37.831437826156616,-5.0,-0.15,-1.46,5.21
37.83316373825073,-5.27,-0.4,-1.43,5.47
37.84823179244995,-5.36,-1.09,-1.36,5.63
37.85028386116028,-5.41,-2.04,-1.34,5.93
37.864469051361084,-5.5,-3.21,-1.33,6.5
37.866384983062744,-5.42,-4.33,-1.27,7.05
37.9488468170166,-5.18,-4.93,-1.19,7.24
37.9501519203186,-4.84,-4.93,-1.03,6.98
37.96829795837402,-4.56,-4.52,-1.05,6.5
37.970144748687744,-4.09,-4.29,-1.16,6.03
37.981441020965576,-3.03,-4.28,-1.04,5.34
37.9832329750061,-2.46,-4.26,-0.68,4.96
37.997885942459106,-1.76,-3.93,-0.26,4.31
37.99963903427124,-0.87,-3.29,0.21,3.4
38.014338970184326,-0.04,-2.82,0.59,2.88
38.01619005203247,0.8,-2.52,0.89,2.78
38.09863090515137,1.63,-2.48,1.13,3.17
38.10010576248169,2.3,-2.67,1.21,3.72
38.11893272399902,2.69,-2.99,1.3,4.22
38.120996952056885,2.94,-3.16,1.35,4.52
38.13190793991089,3.07,-3.11,1.3,4.55
38.13378572463989,3.04,-2.65,1.28,4.23
38.14829087257385,2.88,-1.7,1.37,3.61
38.1501727104187,2.64,-0.48,1.5,3.07
38.16463589668274,2.48,0.65,1.5,2.97
38.166374921798706,2.46,1.78,1.43,3.35
38.24854588508606,2.6,2.51,1.38,3.86
38.25003099441528,2.8,2.89,1.33,4.23
38.26901197433472,2.95,3.34,1.23,4.62
38.27107381820679,3.21,3.63,1.19,4.98
38.28191804885864,3.41,3.79,1.05,5.2
38.283994913101196,3.42,3.92,0.89,5.27
38.298377990722656,3.46,4.13,0.83,5.45
38.300158977508545,3.38,4.36,0.7,5.56
38.31438183784485,3.39,4.57,0.55,5.71
38.31608295440674,3.31,4.72,0.4,5.77
38.39863681793213,3.11,4.77,0.23,5.69
38.40023684501648,2.85,4.69,0.06,5.48
38.41896677017212,2.1,4.27,-0.42,4.77
38.421069860458374,1.5,4.11,-0.66,4.42
38.43188190460205,0.92,3.91,-0.92,4.12
38.43359184265137,0.29,3.59,-1.38,3.85
38.447924852371216,-0.22,3.15,-1.76,3.61
38.44976282119751,-0.72,2.38,-2.13,3.27
38.46445083618164,-1.26,1.65,-2.27,3.07
38.466245889663696,-2.01,1.08,-2.22,3.18
38.54876375198364,-2.69,0.45,-2.0,3.38
38.55023193359375,-3.61,-0.26,-1.88,4.07
38.568251848220825,-4.47,-0.54,-1.8,4.84
38.57001972198486,-5.32,-0.85,-1.74,5.66
38.581470012664795,-5.92,-1.21,-1.65,6.26
38.58310604095459,-6.32,-1.58,-1.58,6.7
38.59790802001953,-6.51,-2.0,-1.43,6.95
38.59983682632446,-6.59,-2.29,-1.15,7.07
38.61439275741577,-6.28,-2.44,-1.02,6.81
38.61621689796448,-5.99,-2.56,-0.92,6.57
38.69931483268738,-5.89,-2.69,-0.68,6.51
38.70092988014221,-5.39,-3.25,-0.27,6.29
38.71890687942505,-4.8,-4.35,0.19,6.48
38.7209587097168,-4.28,-5.16,0.71,6.74
38.731863021850586,-3.72,-5.51,1.51,6.81
38.73385286331177,-2.98,-5.44,2.04,6.52
38.747936725616455,-1.62,-5.29,2.52,6.07
38.749788761138916,-0.61,-4.75,2.94,5.61
38.76464486122131,0.95,-3.73,3.5,5.2
38.76656889915466,1.21,-3.26,3.39,4.85
38.84870195388794,1.18,-2.86,3.14,4.4
38.85029077529907,1.15,-2.59,3.21,4.28
38.86849498748779,1.19,-2.41,3.44,4.36
38.87066078186035,1.39,-1.85,3.59,4.27
38.88197898864746,1.8,-0.93,3.54,4.07
38.884284019470215,2.17,0.08,3.42,4.05
38.89798879623413,2.72,1.16,3.29,4.42
38.90036201477051,3.04,2.16,2.97,4.76
38.91445994377136,3.46,3.03,2.61,5.28
38.916380882263184,3.84,3.86,2.35,5.93
38.9982967376709,4.23,4.54,1.98,6.51
38.99981880187988,4.6,5.0,1.63,6.98
39.01815485954285,4.79,5.4,1.17,7.31
39.01997900009155,5.0,5.69,0.76,7.61
39.03153991699219,5.21,5.88,0.48,7.87
39.03338670730591,5.28,5.99,0.31,7.99
39.04791975021362,5.07,5.86,0.12,7.74
39.049696922302246,4.65,5.53,-0.2,7.22
39.064419746398926,4.11,5.2,-0.44,6.64
39.066287994384766,3.34,4.94,-0.68,6.0
39.14735698699951,2.51,4.58,-0.77,5.27
39.14883494377136,1.64,4.01,-0.75,4.39
39.168235778808594,0.5,3.28,-0.68,3.38
39.169991970062256,-0.71,2.48,-0.55,2.63
39.181551933288574,-2.72,0.67,-0.82,2.91
39.18331575393677,-3.79,-0.18,-1.07,3.94
39.19785404205322,-4.54,-0.76,-0.93,4.69
39.199434757232666,-5.44,-1.33,-0.7,5.64
39.21432971954346,-6.05,-1.75,-0.7,6.33
39.21602201461792,-6.29,-1.98,-0.52,6.61
39.29909586906433,-6.36,-2.31,-0.44,6.78
39.30062675476074,-6.32,-2.96,-0.54,6.99
39.31852579116821,-6.13,-3.61,-0.8,7.15
39.320448875427246,-6.06,-4.02,-1.03,7.34
39.331565856933594,-5.97,-4.14,-1.25,7.37
39.333313941955566,-5.8,-3.72,-1.32,7.01
39.34791684150696,-5.32,-3.19,-1.37,6.35
39.3495888710022,-4.79,-2.85,-1.38,5.74
39.36449885368347,-4.15,-2.64,-1.36,5.1
39.3664870262146,-3.54,-2.39,-1.25,4.45
39.449689865112305,-2.55,-2.56,-0.95,3.73
39.45124292373657,-1.84,-2.24,-0.56,2.95
39.468276023864746,-1.23,-1.77,-0.13,2.15
39.470139026641846,-0.47,-1.33,0.21,1.42
39.48156499862671,0.21,-1.21,0.62,1.37
39.48334980010986,0.76,-1.32,0.97,1.8
39.497862815856934,1.43,-1.7,1.36,2.6
39.499533891677856,1.9,-2.02,1.53,3.16
39.514442920684814,2.14,-2.61,1.64,3.75
39.51635980606079,2.44,-3.11,1.73,4.31
39.59736680984497,2.77,-3.17,2.26,4.77
39.59884595870972,2.79,-3.18,2.27,4.8
39.61836290359497,2.82,-2.17,2.43,4.3
39.62025284767151,2.91,-1.09,2.27,3.84
39.63161373138428,2.95,0.02,1.98,3.55
39.633347034454346,2.88,1.1,1.81,3.57
39.64793086051941,2.78,2.16,1.68,3.9
39.64978384971619,2.56,3.09,1.63,4.33
39.664395809173584,2.18,3.8,1.66,4.68
39.666308879852295,1.84,4.46,1.43,5.03
39.74778890609741,1.75,4.89,1.27,5.34
39.74928379058838,1.7,4.78,0.94,5.15
39.76838302612305,1.73,4.4,0.69,4.77
39.77014088630676,1.88,4.04,0.52,4.48
39.78163385391235,2.19,3.73,0.34,4.33
39.7834677696228,2.38,3.51,0.15,4.24
39.797871828079224,2.39,3.56,-0.03,4.28
39.7996129989624,2.17,3.53,-0.13,4.14
39.8149037361145,1.78,3.33,-0.19,3.78
39.81687593460083,1.08,3.08,-0.25,3.27
39.89879584312439,0.23,2.86,-0.18,2.87
39.90039873123169,-0.26,2.94,-0.1,2.95
39.91850805282593,-0.48,2.83,-0.05,2.87
39.92035484313965,-0.58,2.2,-0.2,2.28
39.93156099319458,-0.44,2.12,-0.31,2.18
39.93319082260132,-0.49,1.37,-0.53,1.54
39.947932720184326,-0.89,0.34,-0.86,1.28
39.94958305358887,-1.47,-0.38,-1.09,1.86
39.96447801589966,-2.79,-0.73,-1.19,3.11
39.966392993927,-3.73,-1.09,-1.2,4.06
40.04787874221802,-4.47,-1.09,-1.02,4.71
40.0492959022522,-5.17,-1.4,-0.89,5.42
40.068243980407715,-5.58,-1.72,-1.08,5.93
40.06993293762207,-5.81,-1.94,-1.32,6.26
40.081650733947754,-5.79,-2.19,-1.65,6.4
40.083677768707275,-5.59,-2.05,-2.0,6.28
40.09796190261841,-5.71,-1.55,-2.1,6.27
40.0996789932251,-5.76,-1.2,-1.87,6.17
40.11446189880371,-5.27,-1.32,-1.19,5.56
40.11625099182129,-4.14,-1.88,-0.4,4.56
40.19771385192871,-2.98,-2.23,-0.01,3.72
40.19920206069946,-1.83,-2.06,0.45,2.79
40.21896696090698,-0.79,-2.14,0.93,2.46
40.221091747283936,0.17,-2.64,1.45,3.01
40.23208999633789,0.99,-3.34,1.97,4.0
40.233810901641846,1.54,-4.15,2.23,4.95
40.24836301803589,1.8,-4.67,2.82,5.74
40.25058388710022,1.37,-4.16,2.91,5.25
40.26473903656006,1.0,-3.57,2.68,4.57
40.266499042510986,0.49,-2.8,2.77,3.96
40.34725570678711,0.22,-2.42,3.32,4.11
40.34873580932617,0.41,-2.22,3.73,4.35
40.368324756622314,0.68,-1.79,3.84,4.29
40.37011003494263,0.99,-1.0,3.56,3.82
40.381542921066284,1.89,1.15,2.6,3.41
40.38336491584778,2.28,2.07,2.16,3.76
40.39830303192139,2.62,3.08,1.86,4.45
40.400439739227295,3.13,3.96,1.59,5.29
40.4145450592041,3.57,4.74,1.34,6.08
40.41627788543701,3.79,4.96,1.08,6.33
40.49740386009216,3.87,5.52,0.89,6.79
40.49887990951538,3.81,5.78,0.68,6.95
40.518218994140625,3.7,5.84,0.37,6.92
40.51987290382385,3.5,5.77,0.08,6.74
40.53164482116699,3.28,5.44,-0.21,6.35
40.53343200683594,3.03,5.17,-0.52,6.01
40.548327922821045,2.75,4.86,-0.82,5.64
40.550199031829834,2.09,4.43,-1.17,5.03
40.564788818359375,1.4,4.01,-1.32,4.44
40.56654191017151,0.54,3.36,-1.44,3.69
40.64748573303223,-0.29,2.49,-1.35,2.84
40.64891195297241,-1.14,1.42,-1.21,2.18
40.66833186149597,-1.88,0.81,-0.85,2.21
40.670188903808594,-2.66,0.28,-0.82,2.79
40.681604862213135,-3.18,-0.27,-0.97,3.33
40.68337392807007,-3.58,-0.78,-1.11,3.82
40.69835090637207,-3.85,-1.44,-1.17,4.27
40.70029091835022,-4.11,-2.13,-1.24,4.79
40.71467685699463,-4.46,-2.74,-1.32,5.39
40.7164568901062,-4.82,-3.03,-1.52,5.89
40.73122787475586,-5.22,-3.1,-1.93,6.37
40.814369916915894,-5.43,-3.1,-2.86,6.87
40.81582689285278,-5.65,-3.1,-4.43,7.82
40.83596086502075,-5.11,-4.19,-3.41,7.43
40.83805990219116,-4.91,-4.49,-1.68,6.86
40.848716735839844,-4.6,-4.65,-0.72,6.58
40.85045385360718,-3.75,-4.11,-0.15,5.56
40.86485004425049,-2.77,-3.69,0.34,4.62
40.86653184890747,-1.93,-3.28,0.77,3.88
40.88123798370361,-1.43,-3.08,1.18,3.59
40.88297986984253,-0.54,-3.24,1.78,3.73
40.96674990653992,-0.02,-3.65,2.0,4.16
40.96885585784912,0.48,-4.1,2.07,4.61
40.98602890968323,0.76,-4.39,2.09,4.92
40.987979888916016,0.99,-4.14,2.2,4.79
40.99868583679199,1.25,-3.44,2.32,4.33
41.000946044921875,1.4,-2.46,2.41,3.71
41.01469898223877,1.58,-1.56,2.67,3.47
41.01650786399841,1.94,-0.61,2.84,3.49
41.031208992004395,2.41,0.42,2.88,3.77
41.032920837402344,2.99,1.43,2.8,4.33
41.114179849624634,3.61,2.27,2.58,4.98
41.11571288108826,4.02,3.06,2.25,5.53
41.13608503341675,4.34,3.68,1.99,6.02
41.13818693161011,4.56,3.97,1.79,6.3
41.14872980117798,4.77,4.05,1.66,6.47
41.15050983428955,5.02,4.07,1.38,6.6
41.16486406326294,5.14,4.13,1.0,6.66
41.16672682762146,5.05,4.64,0.43,6.87
41.1812310218811,4.8,4.86,0.19,6.83
41.18298292160034,4.64,5.01,0.0,6.82
41.265103816986084,4.32,4.95,-0.45,6.58
41.26671504974365,3.73,4.58,-1.05,5.99
41.285850048065186,3.23,4.11,-1.66,5.48
41.288283824920654,2.49,3.59,-2.18,4.88
41.29870891571045,1.59,3.44,-2.56,4.57
41.30048179626465,0.58,3.36,-2.72,4.36
41.31478500366211,-0.46,3.23,-2.66,4.2
41.31683588027954,-1.7,2.82,-2.61,4.2
41.3313250541687,-3.16,1.98,-2.42,4.44
41.33323383331299,-4.5,1.1,-2.45,5.24
41.41560482978821,-5.8,-0.26,-2.71,6.4
41.41734504699707,-6.4,-1.25,-2.69,7.05
41.43614673614502,-6.7,-2.2,-2.52,7.48
41.438578844070435,-6.63,-3.16,-2.62,7.79
41.44915771484375,-6.08,-3.95,-2.84,7.78
41.451765060424805,-5.47,-4.49,-3.14,7.74
41.464720726013184,-4.71,-4.54,-3.35,7.34
41.46653485298157,-3.83,-4.13,-3.52,6.64
41.48114585876465,-3.33,-3.74,-3.24,5.96
41.48305797576904,-3.3,-3.64,-2.59,5.55
41.56341791152954,-3.09,-3.0,-1.7,4.63
41.56502294540405,-2.67,-3.49,-0.89,4.48
41.58500671386719,-1.57,-3.57,-0.15,3.9
41.58690881729126,0.62,-3.69,1.68,4.1
41.59837579727173,1.7,-3.8,2.61,4.91
41.60014772415161,2.29,-4.0,3.05,5.52
41.6146559715271,2.02,-3.41,3.02,4.98
41.61638784408569,1.4,-2.67,2.8,4.11
41.631489753723145,0.88,-2.23,2.63,3.55
41.63327193260193,0.36,-2.17,2.62,3.42
41.71410894393921,-0.03,-2.32,3.04,3.82
41.71559381484985,-0.15,-2.28,3.47,4.15
41.73492884635925,-0.1,-2.23,3.76,4.37
41.736902713775635,0.0,-1.89,3.71,4.16
41.74836087226868,0.21,-1.15,3.55,3.73
41.75019383430481,0.44,-0.34,3.75,3.79
41.764702796936035,0.54,0.36,3.52,3.57
41.76632785797119,0.89,1.32,3.35,3.7
41.78120279312134,1.44,2.24,3.03,4.03
41.782997846603394,1.83,2.79,2.74,4.31
41.86463403701782,2.38,3.6,2.44,4.95
41.86633586883545,2.82,4.27,2.02,5.5
41.88515591621399,3.14,4.83,1.76,6.02
41.887096881866455,3.5,5.02,1.4,6.27
41.89840793609619,3.59,5.34,1.0,6.51
41.900179862976074,3.6,5.69,0.65,6.76
41.91469693183899,3.47,5.87,0.31,6.82
41.9165198802948,3.28,5.88,0.06,6.73
41.931575775146484,3.1,5.62,-0.17,6.42
41.93374586105347,2.77,5.21,-0.27,5.9
42.01586198806763,1.97,4.15,-0.55,4.62
42.017385959625244,1.23,3.65,-0.83,3.94
42.03504991531372,0.28,3.05,-1.08,3.24
42.03689694404602,-0.99,2.17,-1.51,2.82
42.0483980178833,-2.21,1.25,-1.8,3.11
42.05002403259277,-3.36,0.04,-1.7,3.76
42.06470489501953,-4.79,-0.99,-1.35,5.07
42.06641101837158,-5.53,-1.64,-0.8,5.82
42.081181049346924,-5.82,-1.95,-0.4,6.15
42.083333015441895,-5.84,-2.29,-0.08,6.27
42.16487979888916,-5.71,-2.71,-0.09,6.32
42.16636085510254,-5.33,-3.27,-0.42,6.26
42.18524384498596,-4.87,-3.6,-1.02,6.14
42.18735980987549,-4.72,-3.59,-1.42,6.09
42.19855093955994,-4.72,-3.38,-1.61,6.02
42.20018792152405,-4.59,-3.15,-1.63,5.8
42.21483373641968,-4.46,-3.03,-1.55,5.61
42.217040061950684,-4.31,-3.22,-1.39,5.55
42.23143291473389,-3.95,-3.6,-1.04,5.44
42.23338174819946,-3.56,-4.08,-0.52,5.43
42.31494379043579,-3.05,-4.21,-0.02,5.19
42.31662082672119,-2.22,-3.9,0.5,4.51
42.33506202697754,-1.24,-3.22,0.93,3.57
42.337073802948,-0.13,-2.58,1.09,2.8
42.348341941833496,0.88,-2.25,1.2,2.69
42.3499870300293,1.83,-2.25,1.21,3.14
42.364644050598145,2.79,-3.5,1.23,4.64
42.36636185646057,3.17,-3.94,1.34,5.23
42.381210803985596,3.61,-3.38,1.57,5.18
42.38298988342285,3.53,-3.16,1.68,5.02
42.46388101577759,3.56,-1.82,1.47,4.25
42.46537685394287,3.49,-0.54,1.26,3.74
42.48488092422485,3.49,0.61,1.13,3.71
42.48674297332764,3.52,1.65,1.15,4.05
42.498465061187744,3.63,2.45,1.24,4.55
42.50015687942505,3.87,3.05,1.24,5.08
42.51466178894043,4.14,3.58,1.14,5.59
42.51663589477539,4.48,4.03,1.0,6.1
42.53162693977356,4.6,4.33,0.84,6.37
42.53365898132324,4.6,4.74,0.61,6.63
42.61395287513733,4.89,5.06,0.36,7.04
42.615442752838135,4.58,5.28,-0.13,6.99
42.63520097732544,4.56,5.35,-0.27,7.03
42.63695693016052,4.26,5.14,-0.27,6.68
42.64821004867554,3.79,4.88,-0.31,6.18
42.64981174468994,3.24,4.59,-0.23,5.62
42.66473197937012,2.54,4.22,-0.16,4.92
42.666579723358154,1.86,3.84,-0.23,4.27
42.681272983551025,1.27,3.61,-0.34,3.84
42.68323373794556,0.76,3.12,-0.6,3.26
42.763415813446045,0.61,2.71,-0.75,2.87
42.76488184928894,-0.06,1.68,-1.21,2.07
42.785114765167236,-2.16,-0.91,-2.12,3.16
42.7871208190918,-2.21,-0.87,-2.12,3.18
42.79875087738037,-4.72,-1.98,-2.46,5.67
42.800633907318115,-5.72,-1.77,-2.55,6.5
42.81505990028381,-6.34,-1.61,-3.01,7.2
42.81693696975708,-6.53,-1.74,-3.24,7.49
42.831281900405884,-6.16,-1.93,-3.14,7.17
42.83316087722778,-6.23,-1.95,-3.48,7.39
42.914275884628296,-5.99,-2.15,-4.28,7.66
42.91573691368103,-5.34,-2.24,-5.45,7.95
42.93584084510803,-5.38,-1.92,-6.9,8.95
42.937986850738525,-5.3,-1.95,-6.19,8.37
42.949060916900635,-4.99,-2.36,-3.49,6.53
42.9518837928772,-5.07,-2.76,-2.03,6.11
42.96566987037659,-3.37,-3.04,-0.94,4.63
42.96795701980591,-1.86,-2.93,0.16,3.47
42.98135590553284,-0.64,-3.03,1.17,3.31
42.983266830444336,0.47,-3.01,1.84,3.55
43.06458592414856,1.06,-3.33,2.78,4.46
43.06623291969299,1.85,-4.0,3.39,5.56
43.08587384223938,2.47,-4.36,3.82,6.3
43.0878267288208,2.9,-4.66,4.21,6.91
43.09887504577637,2.92,-4.86,4.59,7.29
43.10133695602417,2.77,-4.39,4.75,7.03
43.11506986618042,2.53,-3.45,4.66,6.32
43.117039918899536,2.44,-2.91,4.58,5.94
43.13129782676697,1.73,-2.14,4.9,5.61
43.13317680358887,1.35,-1.98,5.06,5.59
43.213337898254395,1.59,-1.36,4.81,5.24
43.21475601196289,1.61,-0.56,4.41,4.72
43.23584294319153,1.81,0.37,4.08,4.47
43.23797273635864,2.18,1.45,3.71,4.54
43.24875092506409,2.58,2.44,3.15,4.74
43.25077676773071,2.88,3.36,2.42,5.04
43.26513886451721,2.48,2.97,1.26,4.06
43.26726198196411,3.35,5.07,1.02,6.16
43.281259059906006,3.59,6.24,1.24,7.3
43.28313398361206,3.24,6.42,0.49,7.2
43.363523960113525,2.96,6.26,-1.21,7.02
43.36502504348755,2.58,6.05,-3.3,7.35
43.38594102859497,1.72,6.12,-5.03,8.1
43.38801383972168,0.8,6.22,-6.2,8.81
43.398791790008545,0.0,5.82,-6.43,8.67
43.40058088302612,-0.62,4.8,-5.97,7.68
43.41506290435791,-1.36,4.24,-5.47,7.05
43.41714572906494,-1.43,3.4,-4.35,5.7
43.431828022003174,-1.47,2.26,-3.1,4.1
43.433645725250244,-1.63,0.92,-2.07,2.79
43.51587677001953,-1.76,-0.25,-1.32,2.21
43.51750898361206,-2.3,-1.52,-0.87,2.89
43.53582572937012,-2.9,-2.08,-0.35,3.58
43.53779602050781,-2.77,-1.96,-0.27,3.4
43.54886484146118,-2.7,-1.77,-0.89,3.34
43.55063772201538,-2.91,-1.33,-2.13,3.84
43.56518602371216,-3.2,-0.97,-3.17,4.6
43.567102909088135,-4.7,-1.72,-3.96,6.38
43.58174705505371,-5.37,-2.13,-3.94,6.99
43.58357381820679,-5.06,-2.17,-3.97,6.78
43.66608285903931,-4.5,-2.66,-3.41,6.24
43.667696952819824,-4.1,-3.87,-2.25,6.07
43.68598699569702,-3.37,-4.5,-0.69,5.66
43.68851184844971,-3.19,-5.7,0.5,6.55
43.69896388053894,-2.56,-5.87,1.54,6.58
43.70114183425903,-2.19,-5.43,2.0,6.18
43.71508598327637,-2.14,-4.54,2.06,5.42
43.71697378158569,-1.73,-3.48,2.31,4.52
43.73148584365845,-1.12,-2.6,2.33,3.66
43.73336601257324,-0.21,-2.37,2.26,3.28
43.81345081329346,0.55,-3.24,2.04,3.86
43.814974784851074,1.29,-4.35,1.89,4.91
43.83508086204529,1.8,-4.81,1.85,5.45
43.836987018585205,2.01,-5.02,1.94,5.74
43.84883785247803,2.29,-5.09,2.09,5.95
43.85081672668457,2.71,-4.57,2.27,5.77
43.865243911743164,3.13,-3.34,2.45,5.19
43.86709785461426,3.53,-1.87,2.6,4.76
43.88178873062134,3.63,-0.49,2.67,4.53
43.88372588157654,3.74,1.03,2.68,4.71
43.96590805053711,4.02,3.73,2.48,6.01
43.967466831207275,4.02,3.74,2.41,5.99
43.98590087890625,4.35,4.7,2.16,6.75
43.987915992736816,5.17,5.66,1.62,7.83
43.9989800453186,5.06,5.53,1.36,7.61
44.00166988372803,5.12,5.64,1.13,7.7
44.015161991119385,5.05,5.96,0.93,7.86
44.01709485054016,4.49,6.16,0.57,7.64
44.03137993812561,4.44,6.34,0.28,7.74
44.0334587097168,4.42,5.82,0.13,7.3
44.11423587799072,3.69,4.68,-0.14,5.96
44.11569881439209,1.99,3.64,-0.45,4.17
44.135117053985596,0.45,2.81,-1.17,3.07
44.13712191581726,-0.6,2.22,-1.26,2.62
44.14846086502075,-1.84,2.25,-1.65,3.34
44.150192737579346,-2.94,2.17,-2.0,4.16
44.16477584838867,-3.65,1.84,-2.45,4.76
44.16645693778992,-3.69,1.98,-2.75,5.0
44.18135190010071,-3.55,2.47,-2.91,5.21
44.18310189247131,-3.2,2.31,-3.15,5.04
44.26471281051636,-3.55,1.02,-3.03,4.77
44.26629590988159,-4.52,-0.47,-2.92,5.4
44.286080837249756,-5.3,-1.84,-2.71,6.23
44.28814387321472,-5.9,-3.07,-2.58,7.13
44.29891490936279,-5.71,-3.84,-2.04,7.17
44.301300048828125,-5.32,-4.22,-1.69,6.99
44.31514883041382,-4.89,-4.69,-1.7,6.98
44.3169379234314,-4.93,-5.02,-1.41,7.17
44.33141803741455,-5.34,-4.96,-0.97,7.35
44.333255767822266,-5.23,-5.13,-0.71,7.36
44.42127084732056,-4.88,-5.74,0.26,7.53
44.422993898391724,-3.76,-5.33,1.04,6.6
44.43610882759094,-2.71,-5.05,1.76,5.99
44.438326835632324,-1.62,-5.02,2.28,5.74
44.4486927986145,-0.53,-4.73,2.61,5.42
44.45125102996826,0.68,-4.42,3.01,5.39
44.464839935302734,1.54,-4.21,3.56,5.72
44.466979026794434,1.94,-3.77,3.91,5.76
44.48140001296997,1.82,-3.23,3.94,5.41
44.48337483406067,1.67,-2.6,3.74,4.85
44.56740593910217,1.73,-1.8,3.64,4.41
44.569052934646606,2.04,-0.99,3.46,4.13
44.58533000946045,2.44,-0.48,3.12,3.98
44.58725190162659,2.68,0.13,2.71,3.81
44.598527908325195,2.79,0.93,2.2,3.67
44.60134506225586,3.06,1.87,1.7,3.96
44.61482572555542,3.26,2.77,1.28,4.46
44.617039918899536,3.32,3.53,0.87,4.92
44.63137483596802,3.44,4.15,0.53,5.41
44.63346481323242,3.5,4.66,0.23,5.83
44.71697783470154,3.73,5.2,0.03,6.39
44.71856093406677,3.67,5.48,-0.16,6.59
44.73534679412842,3.64,5.7,-0.25,6.76
44.73733377456665,3.66,5.95,-0.42,6.99
44.7485237121582,3.65,6.06,-0.65,7.1
44.75109577178955,3.52,5.82,-0.68,6.83
44.76489782333374,3.4,5.4,-1.01,6.46
44.7672278881073,2.6,4.71,-1.33,5.54
44.78140592575073,2.21,4.68,-1.47,5.38
44.78319787979126,1.35,4.41,-1.43,4.82
44.8669798374176,0.23,3.52,-1.47,3.82
44.868764877319336,-0.89,2.62,-1.59,3.19
44.88535976409912,-1.79,1.52,-1.85,2.98
44.887320041656494,-2.77,0.48,-1.9,3.39
44.89841604232788,-3.54,-0.32,-1.54,3.87
44.90112090110779,-4.26,-0.49,-1.61,4.58
44.91487193107605,-4.66,-0.35,-0.95,4.76
44.9171199798584,-4.75,-0.9,-0.74,4.89
44.93147277832031,-4.36,-1.31,-0.66,4.6
44.93330788612366,-4.44,-1.83,-0.55,4.83
45.016830921173096,-4.59,-2.72,-0.49,5.35
45.01847505569458,-4.71,-3.09,-0.54,5.65
45.03557085990906,-4.77,-3.5,-0.78,5.96
45.03783702850342,-4.65,-3.25,-0.71,5.71
45.049009799957275,-4.87,-3.23,-0.75,5.89
45.0523099899292,-4.61,-3.1,-0.74,5.6
45.06517791748047,-4.29,-3.33,-0.65,5.46
45.06789493560791,-3.78,-3.58,-0.43,5.22
45.081429958343506,-3.22,-3.8,-0.03,4.98
45.08342885971069,-2.38,-3.85,0.48,4.55
45.16675591468811,-1.78,-3.43,0.95,3.97
45.168370723724365,-1.14,-2.92,1.34,3.4
45.18533372879028,-0.39,-2.69,1.55,3.12
45.18730974197388,1.03,-3.11,1.56,3.62
